t,step,pos_left_hip_yaw,pos_left_hip_roll,pos_left_hip_pitch,pos_left_knee,pos_left_ankle,pos_neck_pitch,pos_head_pitch,pos_head_yaw,pos_head_roll,pos_right_hip_yaw,pos_right_hip_roll,pos_right_hip_pitch,pos_right_knee,pos_right_ankle,vel_left_hip_yaw,vel_left_hip_roll,vel_left_hip_pitch,vel_left_knee,vel_left_ankle,vel_neck_pitch,vel_head_pitch,vel_head_yaw,vel_head_roll,vel_right_hip_yaw,vel_right_hip_roll,vel_right_hip_pitch,vel_right_knee,vel_right_ankle,action_left_hip_yaw,action_left_hip_roll,action_left_hip_pitch,action_left_knee,action_left_ankle,action_neck_pitch,action_head_pitch,action_head_yaw,action_head_roll,action_right_hip_yaw,action_right_hip_roll,action_right_hip_pitch,action_right_knee,action_right_ankle,target_left_hip_yaw,target_left_hip_roll,target_left_hip_pitch,target_left_knee,target_left_ankle,target_neck_pitch,target_head_pitch,target_head_yaw,target_head_roll,target_right_hip_yaw,target_right_hip_roll,target_right_hip_pitch,target_right_knee,target_right_ankle,contact_l,contact_r,gyro_x,gyro_y,gyro_z,accel_x,accel_y,accel_z,proj_grav_x,proj_grav_y,proj_grav_z,phase_cos,phase_sin
0.0403,0,-0.0030679617,0.032213595,0.89737874,-1.6060779,0.7439807,0.5236,0.5236,0.0,0.0,-0.0030679617,0.01994175,0.93266034,1.6398255,-0.7317088,0.0,0.0,0.0,0.0,0.0,0.0,0.0,0.0,0.0,0.0,0.0,0.0,0.0,0.0,-0.114517435,0.15222654,0.1049867,-0.13574925,-0.5185021,-0.23376685,-0.29456,-0.0825703,-0.055469774,0.058897134,0.5352312,0.06458721,0.5896908,0.25225043,-0.014551744,0.035922654,0.90569866,-1.582875,0.6925498,0.5236,0.5236,0.0,0.0,0.0021897133,0.04312312,0.9379587,1.6589692,-0.71357495,1.0,1.0,0.00545415391248228,0.025089107997418484,0.02399827721492203,-0.38,0.47,9.62,0.03942331,-0.04876041,-0.9980322,1.0,0.0
0.0585,1,-0.0046019424,0.032213595,0.89737874,-1.6076119,0.7439807,0.5236,0.5236,0.0,0.0,-0.0030679617,0.02147573,0.93266034,1.6398255,-0.7317088,0.0,0.0,0.0,0.0,0.0,0.0,0.0,0.0,0.0,0.0,0.0,0.0,0.0,0.0,-0.104330495,0.027213015,0.32783926,-0.3638084,-0.546469,-0.20866875,-0.3277749,-0.10431434,-0.19787793,0.20573409,0.42508063,-0.20548439,0.5004614,0.34840572,-0.020404097,0.032554895,0.93428314,-1.6138258,0.658643,0.5236,0.5236,0.0,0.0,0.020407237,0.06422193,0.9148268,1.6854277,-0.6888244,1.0,1.0,0.006544984694978735,0.032724923474893676,-0.007635815477475192,-0.04,0.78,9.71,0.0041062026,-0.08007095,-0.9967807,0.9730449,0.23061587
0.0804,2,-0.015339808,0.0398835,0.90658265,-1.6091459,0.720971,0.5236,0.5236,0.0,0.0,0.0030679617,0.04141748,0.93572825,1.6613011,-0.720971,-0.07194247,0.04796165,0.04796165,-0.023980824,-0.11990412,0.0,0.0,0.0,0.0,0.023980824,0.11990412,0.023980824,0.11990412,0.023980824,-0.09916431,0.08106682,0.5136108,-0.45993593,-0.6373496,-0.24432303,-0.3466983,-0.12200549,-0.24515174,0.19532757,0.28295612,-0.3245798,0.39931276,0.37301373,-0.023398891,0.035919618,0.970011,-1.6420091,0.6292108,0.5236,0.5236,0.0,0.0,0.0302971,0.06266878,0.8890381,1.6911879,-0.67151326,1.0,1.0,0.0272707695624114,0.0,-0.008726646259971648,-0.6,-0.42,8.2,0.07288062,0.051016428,-0.996035,0.89363265,0.4487992
0.0981,3,-0.01994175,0.04141748,0.9265244,-1.6198837,0.69029135,0.5236,0.5236,0.0,0.0,0.013805827,0.05982525,0.93266034,1.6827769,-0.70563114,-0.16786577,0.0959233,0.23980825,-0.0959233,-0.45563567,0.0,0.0,0.0,0.0,0.14388494,0.3836932,0.023980824,0.3836932,0.21582742,0.035392936,0.14143385,0.5251203,-0.22863747,-0.76574075,0.061037973,-0.36820388,-0.07801517,-0.40573776,0.15986504,0.1175393,-0.23209712,0.30230677,0.21325245,-0.011740041,0.043975156,0.99259865,-1.6357893,0.59871244,0.5236,0.5236,0.0,0.0,0.032684766,0.045195196,0.88281316,1.6849434,-0.6771027,1.0,1.0,0.2399827721492203,-0.002181661564992912,-0.03599741582238305,1.53,0.23,7.59,-0.19751902,-0.029692402,-0.9798493,0.76604444,0.64278764
0.1180,4,-0.026077673,0.046019424,0.957204,-1.6352235,0.6565438,0.5236,0.5236,0.0,0.0,0.023009712,0.065961175,0.92345643,1.6996508,-0.6979613,-0.26378906,0.14388494,0.57553977,-0.26378906,-0.93525213,0.0,0.0,0.0,0.0,0.26378906,0.5995206,-0.023980824,0.69544387,0.407674,0.01306317,0.20281762,0.31326512,0.18694024,-0.8793563,-0.038164154,-0.2627631,-0.08704896,-0.5016223,0.11672069,-0.09356087,-0.2304965,0.2505729,0.2193961,-0.0069777076,0.054946855,0.9849657,-1.5904995,0.56905186,0.5236,0.5236,0.0,0.0,0.02980293,0.013601034,0.87923825,1.6760234,-0.679842,1.0,1.0,0.3850632662212489,0.23561944901923448,-0.35452000431134817,2.22,1.42,8.8,-0.24166895,-0.15458104,-0.95796704,0.5971586,0.8021232
0.1380,5,-0.016873788,0.053689327,0.9802137,-1.6413594,0.61972827,0.5236,0.5236,0.0,0.0,0.024543693,0.05982525,0.9111846,1.7042526,-0.6979613,-0.23980825,0.16786577,0.93525213,-0.407674,-1.366907,0.0,0.0,0.0,0.0,0.35971236,0.57553977,-0.1918466,0.815348,0.45563567,-0.098182485,0.1940464,0.13816206,0.4150474,-0.76944375,-0.44893396,-0.1846596,-0.12512349,-0.497063,0.0758291,-0.20409274,-0.2885433,0.23600294,0.30175188,-0.015244873,0.060652755,0.9628756,-1.5405151,0.56224674,0.5236,0.5236,0.0,0.0,0.023984669,-0.016408654,0.87128866,1.6692142,-0.67325,1.0,1.0,0.12544553998709243,1.1464631524037752,-0.5825036378531074,-0.45,3.76,10.74,0.0395151,-0.33017063,-0.9430938,0.39607978,0.9182161
0.1605,6,-0.009203885,0.065961175,0.98634964,-1.6260196,0.58598065,0.5236,0.5236,0.0,0.0,0.023009712,0.044485442,0.8989127,1.7011847,-0.6964273,0.0,0.26378906,1.0551562,-0.33573154,-1.5827343,0.0,0.0,0.0,0.0,0.26378906,0.1918466,-0.3836932,0.6235014,0.3117507,-0.1451992,0.054437347,0.05258828,0.6285826,-0.71856284,-0.3691967,-0.1039178,-0.059962474,-0.44403702,0.033440713,-0.21880311,-0.2158887,0.18450642,0.37794286,-0.024906844,0.05011539,0.94106424,-1.4891708,0.56325173,0.5236,0.5236,0.0,0.0,0.016254874,-0.035885505,0.8737843,1.6599792,-0.6616757,1.0,1.0,-0.37415495839628443,1.076649982324002,-0.8628471489546966,-0.23,3.83,11.86,0.01845136,-0.3072552,-0.95144826,0.17364818,0.9848077
0.1804,7,-0.016873788,0.0720971,0.9771458,-1.6076119,0.5660389,0.5236,0.5236,0.0,0.0,0.024543693,0.023009712,0.8866409,1.6981168,-0.6933593,0.0959233,0.35971236,0.7913672,0.0,-1.5587536,0.0,0.0,0.0,0.0,0.14388494,-0.23980825,-0.551559,0.28776988,0.14388494,-0.06630148,-0.2220552,0.23175468,0.8407549,-0.71502763,-0.09749648,0.019097902,0.17821838,-0.5304405,0.021409798,-0.16061193,-0.12849759,0.056742564,0.510353,-0.022814255,0.016143715,0.945894,-1.437147,0.56420827,0.5236,0.5236,0.0,0.0,0.010413905,-0.0417525,0.8840208,1.6416618,-0.6414901,1.0,1.0,-0.5705044992456465,0.7341291166201148,-0.7755806863549801,0.38,-0.96,11.24,-0.033666097,0.08505119,-0.99580765,-0.05814483,0.9983082
0.2003,8,-0.023009712,0.070563115,0.96180594,-1.6030099,0.55683506,0.5236,0.5236,0.0,0.0,0.01840777,0.0030679617,0.878971,1.6889129,-0.6872234,0.04796165,0.33573154,0.23980825,0.35971236,-1.3429261,0.0,0.0,0.0,0.0,0.023980824,-0.6474822,-0.57553977,0.0,0.11990412,0.1543766,-0.26428542,0.5103008,0.78077155,-0.44507748,-0.017511643,0.1132103,0.31814662,-0.47446665,-0.13380624,-0.13717857,-0.27668262,-0.23519745,0.5099938,0.00050910586,-0.008462312,0.9766465,-1.411931,0.5917772,0.5236,0.5236,0.0,0.0,-0.008612282,-0.04292936,0.8753442,1.6014774,-0.6294147,1.0,1.0,-0.5912302841130791,0.9621127501618741,-0.3763366199612773,-0.13,-3.6,10.94,0.0112868445,0.31255877,-0.94983137,-0.28680325,0.9579895
0.2765,9,0.0030679617,0.03834952,0.97100985,-1.592272,0.56297094,0.5236,0.5236,0.0,0.0,-0.009203885,-0.0061359233,0.878971,1.6382915,-0.6304661,0.28776988,-0.35971236,0.04796165,0.0,0.0,0.0,0.0,0.0,0.0,-0.3836932,-0.23980825,-0.023980824,-0.7194247,0.69544387,0.3191855,-0.030119203,0.5089189,0.3872816,-0.012418658,-0.15576112,-0.092541404,0.2234087,-0.16406903,-0.24267441,0.037402265,-0.26721817,-0.35416067,0.5805369,0.030984014,0.00019069202,0.9949598,-1.4361506,0.6515845,0.5236,0.5236,0.0,0.0,-0.03091481,-0.026177388,0.87108475,1.5654703,-0.6151151,1.0,1.0,-0.3141592653589793,1.0188359508516898,-0.07526732399225546,-0.35,-0.13,8.19,0.042690706,0.015856547,-0.9989625,-0.5,0.8660254
0.2921,10,0.0030679617,0.035281558,0.9679419,-1.5707964,0.56297094,0.5236,0.5236,0.0,0.0,-0.010737865,-0.0061359233,0.877437,1.6352235,-0.62739813,0.33573154,-0.35971236,0.14388494,0.21582742,0.04796165,0.0,0.0,0.0,0.0,-0.35971236,-0.0959233,0.0,-0.6235014,0.6714631,0.40758038,0.55867684,0.59713036,-0.29100823,0.06625653,-0.15232238,0.097285315,0.24350327,-0.13460524,-0.43026775,0.2662128,-0.41605988,-0.76148677,0.684188,0.05810845,0.0642621,1.014769,-1.5185112,0.69533634,0.5236,0.5236,0.0,0.0,-0.063055664,0.0067548463,0.85364485,1.5031335,-0.59617025,1.0,1.0,-0.1407171709420428,0.5094179754258449,0.34470252726888007,-4.34,-2.3,11.05,0.3589007,0.19020082,-0.91379094,-0.6862416,0.72737366
0.3120,11,0.01840777,0.035281558,0.9664079,-1.5784662,0.56297094,0.5236,0.5236,0.0,0.0,-0.023009712,-0.0015339808,0.8713011,1.6214176,-0.6181943,0.3117507,-0.28776988,0.0959233,0.4796165,0.07194247,0.0,0.0,0.0,0.0,-0.26378906,0.0,-0.0959233,-0.45563567,0.57553977,0.23671828,1.0099,0.17000622,-0.96034664,0.0038576499,-0.19504984,-0.095046796,-0.046911597,-0.13885918,-0.29596445,0.28410906,-0.23424554,-0.5910587,0.7097737,0.0572969,0.14782727,0.983942,-1.6149112,0.7153476,0.5236,0.5236,0.0,0.0,-0.068909846,0.028303813,0.86136234,1.4827743,-0.58224475,1.0,1.0,0.24107360293171679,0.3861540970037454,0.3414300349213907,-1.25,-1.29,9.72,0.12645954,0.13050625,-0.9833494,-0.8354878,0.549509
0.3322,12,0.046019424,0.053689327,0.9771458,-1.592272,0.5645049,0.5236,0.5236,0.0,0.0,-0.049087387,0.015339808,0.8651652,1.5892041,-0.6043884,0.45563567,-0.0959233,0.023980824,0.407674,0.0,0.0,0.0,0.0,0.0,-0.3836932,0.0959233,-0.14388494,-0.5275781,0.4796165,0.09367735,1.0076702,-0.31501234,-0.8302716,0.20201477,-0.21920466,-0.15125008,-0.15234609,-0.26745006,-0.18691948,0.38492396,0.023153074,-0.019044379,0.71267486,0.042505875,0.19774339,0.91694397,-1.691664,0.74717003,0.5236,0.5236,0.0,0.0,-0.061517853,0.051314685,0.89173275,1.5277601,-0.57359934,1.0,1.0,0.519235452468313,0.2585268954516601,0.08726646259971647,0.16,1.43,6.41,-0.0243549,-0.2176719,-0.97571814,-0.9396926,0.34202015
0.3522,13,0.05522331,0.09817477,0.9832817,-1.6122139,0.5798447,0.5236,0.5236,0.0,0.0,-0.06749515,0.033747576,0.8620972,1.5615925,-0.58444667,0.6714631,0.35971236,0.11990412,-0.023980824,0.04796165,0.0,0.0,0.0,0.0,-0.69544387,0.35971236,-0.21582742,-0.8633097,0.5275781,0.37412465,1.1365858,-0.7653115,-0.8487021,0.17118177,-0.1650194,0.08119421,-0.32936642,-0.3039822,-0.12193321,0.25901636,0.12962434,0.13471967,0.680179,0.06167599,0.24058461,0.8317152,-1.7275887,0.7631802,0.5236,0.5236,0.0,0.0,-0.050584037,0.05253045,0.9206021,1.5701281,-0.5716617,1.0,1.0,-0.07744898555724837,-0.02617993877991494,-0.40033489717619936,-1.24,0.98,9.03,0.13526379,-0.106902026,-0.98502576,-0.99323833,0.11609291
0.3721,14,0.05522331,0.15646604,0.95873797,-1.6428934,0.6181943,0.5236,0.5236,0.0,0.0,-0.065961175,0.046019424,0.8697671,1.5600585,-0.57217485,0.7194247,1.0551562,0.0959233,-0.57553977,0.3836932,0.0,0.0,0.0,0.0,-0.7913672,0.57553977,-0.16786577,-1.0071946,0.6474822,0.39771706,0.72718686,-0.8452987,-0.58178514,0.19670251,-0.055650413,0.17190313,-0.31417525,-0.3801158,0.013763037,0.12556012,0.19852978,0.45875004,0.7013099,0.0755373,0.22534949,0.77257925,-1.7224517,0.7753384,0.5236,0.5236,0.0,0.0,-0.03045412,0.039914284,0.9448142,1.6279519,-0.568386,1.0,1.0,-0.7428557628800865,-0.4494222823885398,-0.6512259771503841,-1.41,2.38,7.93,0.16788402,-0.28337872,-0.9441988,-0.99323833,-0.11609291
0.3920,15,0.065961175,0.21475731,0.89584476,-1.678175,0.6826215,0.5236,0.5236,0.0,0.0,-0.053689327,0.05675729,0.89584476,1.5769322,-0.5645049,0.57553977,1.8944851,-0.43165484,-1.0311754,1.0551562,0.0,0.0,0.0,0.0,-0.5275781,0.7194247,0.07194247,-0.7673864,0.69544387,0.3055125,0.8610276,-0.54440916,-0.81891954,0.013884768,0.1356019,0.43955407,-0.391852,-0.29961228,0.06330843,0.040616743,0.279203,0.08244978,0.920986,0.074633636,0.22959244,0.76718664,-1.743083,0.76435155,0.5236,0.5236,0.0,0.0,-0.01342163,0.023850244,0.96740884,1.6250161,-0.544453,1.0,1.0,-1.0090184738092218,0.09926560120717749,-0.5377795757707529,-0.6,-0.97,4.71,0.12381007,0.20015961,-0.971909,-0.9396926,-0.34202015
0.4142,16,0.07823302,0.23776703,0.81607777,-1.7226604,0.7501166,0.5236,0.5236,0.0,0.0,-0.035281558,0.050621364,0.9295924,1.6198837,-0.558369,0.35971236,2.2541974,-1.486811,-1.5107919,1.9904084,0.0,0.0,0.0,0.0,0.0,0.551559,0.57553977,0.04796165,0.57553977,0.39356667,0.40300623,-1.1003498,-0.61361796,0.25548065,0.09536177,0.37135503,-0.448037,-0.3172589,-0.04337425,0.039696407,0.4860021,0.08199669,0.7273272,0.08289685,0.1863361,0.708357,-1.7349316,0.781919,0.5236,0.5236,0.0,0.0,-0.013870403,0.014119788,1.0016456,1.6232094,-0.5494591,1.0,1.0,-0.7526732399225546,0.5323254218582705,-0.3687008044838021,-1.17,0.68,2.82,0.37405398,-0.21739891,-0.901566,-0.8354878,-0.549509
0.4322,17,0.08130098,0.25464082,0.7838642,-1.754874,0.76852435,0.5236,0.5236,0.0,0.0,-0.02147573,0.050621364,0.957204,1.6490294,-0.5445632,0.3836932,2.0623507,-2.32614,-1.7506001,2.422063,0.0,0.0,0.0,0.0,0.43165484,0.33573154,1.0551562,0.7673864,0.4796165,0.31627676,0.5238119,-0.7415285,-0.5550386,0.20563573,0.17038684,0.50391155,-0.48519185,-0.23039629,0.101190194,0.17530392,0.25147545,-0.4129674,1.1225562,0.08012579,0.17246285,0.70894134,-1.7241828,0.787475,0.5236,0.5236,0.0,0.0,0.00031677797,0.021842267,0.99873483,1.5726289,-0.5129398,1.0,1.0,-0.5628686837681712,0.5399612373357457,0.13308135546456762,-2.08,-0.97,11.24,0.18131232,0.08455431,-0.9797839,-0.6862416,-0.72737366
0.4562,18,0.088970885,0.25157285,0.7455147,-1.7717478,0.79306805,0.5236,0.5236,0.0,0.0,-0.015339808,0.050621364,0.9817477,1.6613011,-0.5353593,0.407674,1.2949644,-2.5659482,-1.7026385,2.2302167,0.0,0.0,0.0,0.0,0.57553977,0.04796165,1.3908877,1.2709837,0.43165484,0.3837734,0.46731332,-0.8047439,-0.3295784,0.17763403,0.10552007,0.49591458,-0.4937279,-0.103055954,0.08948329,0.08713241,0.15342641,-0.7951936,1.0621963,0.08521282,0.15848905,0.7029704,-1.6951876,0.7880084,0.5236,0.5236,0.0,0.0,0.007658395,0.017658602,0.9871836,1.504058,-0.49706426,1.0,1.0,-0.7592182246175333,0.6294093615004551,-0.06981317007977318,-4.32,0.96,18.29,0.22957037,-0.051015634,-0.97195417,-0.5,-0.8660254
0.4722,19,0.08743691,0.23623304,0.72403896,-1.7778838,0.799204,0.5236,0.5236,0.0,0.0,-0.009203885,0.050621364,0.9771458,1.6474954,-0.5184855,0.33573154,0.6714631,-2.2302167,-1.3908877,1.7026385,0.0,0.0,0.0,0.0,0.551559,0.0,1.2470028,1.103118,0.5035973,0.6184034,0.6327374,-0.81846577,0.043323968,0.090232305,-0.10811905,0.6428758,-0.3685274,0.22970203,-0.4654554,-0.035513163,0.02014599,-1.3063548,0.64077777,0.111728035,0.16664717,0.6980157,-1.6405002,0.7795883,0.5236,0.5236,0.0,0.0,-0.043430503,0.002883846,0.9669247,1.4117993,-0.5296808,1.0,1.0,-0.4112432050011639,1.2642728769133924,0.6861325621902707,-5.21,-1.28,10.36,0.4465698,0.10971388,-0.88799673,-0.28680325,-0.9579895
0.4922,20,0.09203885,0.21782528,0.7086991,-1.7824857,0.79767,0.5236,0.5236,0.0,0.0,-0.0061359233,0.050621364,0.9679419,1.6229516,-0.49240783,0.21582742,0.0,-1.6546768,-0.93525213,0.9832138,0.0,0.0,0.0,0.0,0.407674,0.0,0.7673864,0.407674,0.6714631,0.4960901,0.64149374,-0.75487477,0.3370473,-0.02711767,-0.16516653,0.5545365,-0.28096583,0.12923998,-0.41470957,-0.028503,-0.26191553,-1.431083,0.41806847,0.115405835,0.17241767,0.70140195,-1.5783154,0.76280123,0.5236,0.5236,0.0,0.0,-0.06900926,-0.0052799922,0.9265633,1.3439713,-0.57152164,1.0,1.0,0.1658062789394613,1.0701049976290233,1.2849986617808251,-2.01,-2.08,7.48,0.25063026,0.25935864,-0.93269366,-0.05814483,-0.9983082
0.5162,21,0.111980595,0.21782528,0.6979613,-1.7886215,0.799204,0.5236,0.5236,0.0,0.0,-0.032213595,0.047553405,0.9526021,1.5876701,-0.47706804,0.21582742,-0.407674,-1.1510795,-0.4796165,0.45563567,0.0,0.0,0.0,0.0,0.11990412,0.0,0.04796165,-0.5275781,0.815348,0.46212357,0.3490426,-0.8266075,0.5249584,-0.06540131,-0.09219791,0.11951255,-0.27374107,-0.15379609,-0.23265164,-0.2196581,-0.1749989,-0.992906,0.34925935,0.11421586,0.14663488,0.6962604,-1.5222135,0.7489006,0.5236,0.5236,0.0,0.0,-0.06615072,-0.029293805,0.9110381,1.3470922,-0.60350704,1.0,1.0,0.028361600344907856,0.5857761302005968,0.8846637646046258,1.32,4.11,9.4,-0.12761252,-0.39733896,-0.90875566,0.17364818,-0.9848077
0.5322,22,0.11811652,0.21322332,0.70102924,-1.7916895,0.79306805,0.5236,0.5236,0.0,0.0,-0.06135923,0.04295146,0.9295924,1.5615925,-0.46786413,0.33573154,-0.45563567,-0.815348,-0.33573154,0.1918466,0.0,0.0,0.0,0.0,-0.26378906,-0.04796165,-0.35971236,-1.0071946,0.8633097,0.66992754,0.8114922,-0.8072277,1.0659623,-0.22822526,-0.44292304,0.3606133,0.06521237,0.40590703,-0.8580757,0.651271,-0.048169333,-0.6549222,-0.30546862,0.13428228,0.17741016,0.6951135,-1.4344518,0.72427785,0.5236,0.5236,0.0,0.0,-0.12697801,0.043390814,0.91440594,1.3827631,-0.6881711,1.0,1.0,-0.5290529295107811,1.026471766329165,0.3414300349213907,-2.33,-2.31,10.16,0.2182335,0.21636024,-0.95161045,0.39607978,-0.9182161
0.5561,23,0.124252446,0.20862138,0.6979613,-1.7993594,0.7746603,0.5236,0.5236,0.0,0.0,-0.07823302,0.030679615,0.9019807,1.5416507,-0.45252433,0.43165484,-0.28776988,-0.3836932,-0.26378906,-0.11990412,0.0,0.0,0.0,0.0,-0.7913672,-0.21582742,-0.8393288,-1.2709837,0.7673864,0.6858542,0.7921504,-0.8565343,1.1851097,-0.30570287,-0.4481762,0.24003299,0.18802446,0.42310628,-0.8112405,1.2072353,-0.09613371,0.07166693,-0.2956159,0.14791478,0.19394115,0.6894946,-1.3698802,0.7017564,0.5236,0.5236,0.0,0.0,-0.15879087,0.13979082,0.9116302,1.4768245,-0.73798424,1.0,1.0,-0.5159629601208237,0.7188574856651644,0.24761858762669547,-2.11,-0.49,10.67,0.19379741,0.045005087,-0.9800087,0.5971586,-0.8021232
0.5719,24,0.13345633,0.20862138,0.6964273,-1.7962915,0.75318456,0.5236,0.5236,0.0,0.0,-0.107378654,0.04295146,0.89124286,1.517107,-0.44485444,0.4796165,-0.1918466,-0.21582742,-0.26378906,-0.35971236,0.0,0.0,0.0,0.0,-1.0791371,-0.21582742,-0.9832138,-1.2470028,0.6474822,1.1367185,0.6815983,-0.92856467,1.1954559,0.09698469,-0.31758103,0.4381005,0.27556592,0.62118685,-0.95746833,1.7614279,-0.5349083,0.8498658,-0.4133525,0.20118073,0.19280452,0.6789203,-1.3301026,0.72851235,0.5236,0.5236,0.0,0.0,-0.19250137,0.23619083,0.8660873,1.5732245,-0.7796458,1.0,1.0,-0.5966844380255614,0.8333947178272924,0.2694352032766246,-4.06,1.42,10.19,0.36706984,-0.12838404,-0.92129105,0.76604444,-0.64278764
0.6080,25,0.1518641,0.21322332,0.6933593,-1.7962915,0.7317088,0.5236,0.5236,0.0,0.0,-0.14572817,0.08283496,0.88203895,1.5094371,-0.4555923,0.45563567,-0.0959233,-0.0959233,-0.14388494,-0.7434055,0.0,0.0,0.0,0.0,-1.2949644,0.07194247,-0.9832138,-1.1510795,0.5035973,1.1976625,0.59058243,-0.8010574,1.1589167,0.30563453,-0.153827,0.4060842,0.3397279,0.647624,-1.0207138,2.1731837,-1.0171939,1.2573701,-0.35362542,0.2392347,0.18302095,0.68532646,-1.3098898,0.76543087,0.5236,0.5236,0.0,0.0,-0.21905221,0.33259082,0.790533,1.6696246,-0.79867,1.0,1.0,-0.47560222116845474,1.2468195843934493,0.07744898555724837,-1.95,0.84,7.2,0.25977358,-0.11190246,-0.95916396,0.89363265,-0.4487992
0.6243,26,0.19481556,0.21322332,0.6841554,-1.7763498,0.72403896,0.5236,0.5236,0.0,0.0,-0.18867964,0.17640778,0.8713011,1.5585245,-0.53075737,0.8393288,0.0,-0.16786577,0.023980824,-0.7913672,0.0,0.0,0.0,0.0,-1.5347728,1.3429261,-0.6235014,-0.3117507,-0.407674,0.6154693,0.37798336,-0.50076014,0.5811112,0.13313746,-0.166697,-0.017420985,0.34469637,0.46074128,-0.9337093,1.9508356,-1.1951563,1.2272563,-0.31617177,0.20384775,0.15589091,0.7191999,-1.3555428,0.7703323,0.5236,0.5236,0.0,0.0,-0.22628228,0.4115336,0.7274042,1.7660246,-0.80633914,1.0,1.0,-0.007635815477475192,0.681769239060285,0.7232208087951503,0.14,0.26,5.81,-0.024065321,-0.04469274,-0.9987108,0.9730449,-0.23061587
0.6440,27,0.22702916,0.20862138,0.6795535,-1.7748158,0.72864085,0.5236,0.5236,0.0,0.0,-0.2162913,0.25464082,0.8528933,1.6076119,-0.60132045,1.1510795,0.023980824,-0.23980825,0.28776988,-0.551559,0.0,0.0,0.0,0.0,-1.5107919,2.3501208,-0.4796165,0.5995206,-1.4628303,1.0370518,0.18549848,-0.2578809,1.1811982,0.42838505,-0.5286624,0.4018603,0.6993331,0.59217644,-1.5001035,1.9732403,-1.9683123,1.272529,-0.66294277,0.22477384,0.120364405,0.7638118,-1.3229258,0.8027979,0.5236,0.5236,0.0,0.0,-0.28725973,0.44008422,0.63100415,1.8485472,-0.8456178,1.0,1.0,0.37960911230876665,1.4486232791552935,0.8453938564347534,-2.72,-3.54,9.38,0.2618359,0.34077173,-0.90294886,1.0,0.0
0.6661,28,0.22702916,0.18867964,0.6964273,-1.7886215,0.7317088,0.5236,0.5236,0.0,0.0,-0.239301,0.3359418,0.799204,1.675107,-0.67341757,1.1510795,-0.11990412,-0.0959233,0.23980825,-0.1918466,0.0,0.0,0.0,0.0,-1.3429261,3.0935264,-0.7434055,1.6067152,-2.4700248,1.5812261,-0.28007305,0.13119261,2.012422,0.7269999,-0.68013,0.6787196,1.3423184,0.39428347,-1.9259855,2.1062362,-2.614575,1.6489147,-1.3766907,0.2917469,0.052491345,0.82948637,-1.2265258,0.85213876,0.5236,0.5236,0.0,0.0,-0.3664344,0.47051418,0.53460413,1.9140198,-0.94055974,1.0,1.0,1.22500296874352,1.8151424220741028,1.4628040793277475,-6.99,-0.45,5.61,0.77890706,0.050144233,-0.6251315,0.9730449,0.23061587
0.6839,29,0.2316311,0.16566992,0.71483505,-1.8008934,0.73784477,0.5236,0.5236,0.0,0.0,-0.26691267,0.39576703,0.73937875,1.7472041,-0.72710687,0.91127133,-0.3836932,0.11990412,0.07194247,-0.04796165,0.0,0.0,0.0,0.0,-1.2470028,3.405277,-1.2709837,2.302159,-2.9016798,1.4147063,-0.71277595,0.42199177,2.542301,0.5391906,-0.5768695,0.64644444,1.5161216,0.14906465,-1.9720418,1.9076644,-2.944545,1.4167591,-1.4690497,0.3152788,-0.03150279,0.897971,-1.1301258,0.8629623,0.5236,0.5236,0.0,0.0,-0.41854483,0.468915,0.43820414,1.9300878,-1.0067608,1.0,1.0,1.7409659288643435,1.3766284475105275,1.6438819892221592,-3.89,-2.07,6.48,0.49640855,0.2641557,-0.8269222,0.89363265,0.4487992
0.7061,30,0.26691267,0.12578642,0.7424467,-1.8177673,0.7317088,0.5236,0.5236,0.0,0.0,-0.33287382,0.44178647,0.65040785,1.837709,-0.796136,0.6474822,-0.8393288,0.551559,-0.407674,0.07194247,0.0,0.0,0.0,0.0,-1.5107919,3.3812962,-2.32614,3.1414878,-3.1175072,1.5422564,-0.28885868,0.87961876,1.9462312,0.803229,-0.35083336,0.4166737,1.8084283,-0.056669414,-2.1003177,1.7949704,-2.8393357,0.47058246,-1.7002034,0.34215292,-0.039507546,0.9848245,-1.0964749,0.8958603,0.5236,0.5236,0.0,0.0,-0.46263868,0.45668608,0.34180415,1.8451109,-1.0695968,1.0,1.0,1.9329521465837198,1.4584407561977615,0.9348419805994627,-4.74,0.28,5.71,0.6382711,-0.037703782,-0.7688878,0.76604444,0.64278764
0.7239,31,0.2960583,0.084368944,0.7869322,-1.834641,0.7317088,0.5236,0.5236,0.0,0.0,-0.3911651,0.45099035,0.58751464,1.9052042,-0.84368944,0.7673864,-1.2709837,0.959233,-0.6235014,0.023980824,0.0,0.0,0.0,0.0,-1.9424467,2.9016798,-3.0455647,3.5971236,-3.0935264,1.1224675,0.34324947,1.1782249,0.96680903,0.55876607,-0.13736822,-0.046780556,1.4802796,-0.40008104,-1.8453196,1.5623271,-2.2697828,-0.363695,-1.8057883,0.3162985,0.01890042,1.0667971,-1.188924,0.8911528,0.5236,0.5236,0.0,0.0,-0.46359518,0.42608437,0.33030325,1.7487109,-1.117857,1.0,1.0,2.4510967682695366,1.22500296874352,1.368992632033052,-2.48,1.35,7.72,0.30169672,-0.16423006,-0.93915266,0.5971586,0.8021232
0.7459,32,0.32060197,0.053689327,0.84368944,-1.8637867,0.72710687,0.5236,0.5236,0.0,0.0,-0.45405832,0.44945636,0.49854377,1.9481556,-0.9035147,1.1750604,-1.6546768,1.5827343,-0.8393288,0.0,0.0,0.0,0.0,0.0,-2.5899289,1.8465234,-3.5971236,3.6450853,-2.9496412,0.9723998,0.9678444,1.0762511,0.28260195,0.4175103,-0.15161604,-0.18777901,1.1549917,-0.5851315,-1.849811,1.4771968,-1.8615093,-0.70622194,-1.8133255,0.2857791,0.11530042,1.1057835,-1.285324,0.8742027,0.5236,0.5236,0.0,0.0,-0.46461824,0.3992103,0.38463098,1.6523108,-1.1475668,1.0,1.0,2.349649505497366,0.6130468997630082,0.9522952731194061,-6.33,3.54,11.07,0.4783044,-0.26748776,-0.83646595,0.39607978,0.9182161
0.7661,33,0.30679616,0.05982525,0.8851069,-1.8852624,0.71330106,0.5236,0.5236,0.0,0.0,-0.47246608,0.44792238,0.41877675,1.9450877,-0.9280584,1.1270987,-1.4628303,1.9904084,-1.0071946,-0.14388494,0.0,0.0,0.0,0.0,-2.6618714,0.8872905,-3.7649894,2.9016798,-2.6618714,1.1300913,1.5859945,0.52077585,-0.08019448,0.31659716,-0.2964442,-0.16871777,0.95437527,-0.48560807,-2.0082033,1.3019613,-1.3891745,-0.8639679,-2.0967047,0.2832366,0.21170041,1.0736277,-1.381724,0.8539414,0.5236,0.5236,0.0,0.0,-0.48107126,0.36556232,0.46446115,1.5559108,-1.1937306,1.0,1.0,2.1402099952580467,1.0482883819790942,0.5126904677733343,-10.22,7.45,12.81,0.5677366,-0.4138589,-0.7116151,0.17364818,0.9848077
0.7839,34,0.28532043,0.08130098,0.92038846,-1.8990682,0.7040972,0.5236,0.5236,0.0,0.0,-0.4709321,0.4371845,0.37735927,1.9312818,-0.9265244,0.551559,-0.959233,2.1582742,-1.0791371,-0.26378906,0.0,0.0,0.0,0.0,-2.182255,0.28776988,-3.7170277,1.8225427,-2.1342933,1.4710987,2.1150439,-0.19148472,-0.585043,0.110672854,-0.46209925,0.15252627,0.6749202,-0.29493538,-1.826795,1.0527191,-1.177235,-0.96135765,-2.292969,0.31581184,0.3081004,0.98310816,-1.478124,0.82119215,0.5236,0.5236,0.0,0.0,-0.47280228,0.32044932,0.5335532,1.4595108,-1.2410553,1.0,1.0,1.088649120931463,1.3362677085581585,-1.4300791558528538,-6.27,2.32,11.98,0.45702463,-0.16910641,-0.87323046,-0.05814483,0.9983082
0.8060,35,0.27765054,0.12885438,0.9679419,-1.9098061,0.6933593,0.5236,0.5236,0.0,0.0,-0.47246608,0.41570878,0.35588354,1.9021362,-0.9188545,-0.1918466,0.14388494,2.1342933,-0.9832138,-0.45563567,0.0,0.0,0.0,0.0,-1.1990412,-0.23980825,-3.1414878,0.35971236,-1.1750604,1.7051873,2.4476323,-0.9778668,-0.91427135,0.14042792,-0.43854126,0.4234737,0.57096344,-0.28430033,-1.8987651,0.5149564,-0.77539146,-1.2973969,-2.7998524,0.35876587,0.4045004,0.88670814,-1.574524,0.80451804,0.5236,0.5236,0.0,0.0,-0.4750379,0.23960525,0.6151928,1.380568,-1.3201385,1.0,1.0,0.8672104720846824,1.7529650674718047,-1.8522306686789822,-5.29,4.7,8.59,0.47532022,-0.42230716,-0.7718338,-0.28680325,0.9579895
0.8282,36,0.29145634,0.20248546,0.9786797,-1.9113401,0.6872234,0.5236,0.5236,0.0,0.0,-0.4693981,0.38042724,0.3420777,1.8729905,-0.9096506,-0.407674,1.2470028,1.918466,-0.7194247,-0.4796165,0.0,0.0,0.0,0.0,-0.407674,-0.6235014,-2.2302167,-0.551559,-0.3117507,1.8423853,2.596378,-1.541699,-1.1698252,0.23183206,-0.31404072,0.83709556,0.21503651,-0.24296235,-1.7163311,0.07286969,-0.63492215,-1.4339097,-2.3471355,0.39825806,0.5009004,0.7903081,-1.6709241,0.8036541,0.5236,0.5236,0.0,0.0,-0.45813587,0.14689012,0.67822343,1.3249497,-1.3223166,1.0,1.0,-0.3959715740462135,1.158462291011236,-1.5227997723650526,-5.38,2.38,8.21,0.5326657,-0.23564023,-0.8128598,-0.5,0.8660254
0.8459,37,0.31293207,0.2699806,0.9403302,-1.9113401,0.6810875,0.5236,0.5236,0.0,0.0,-0.4709321,0.3267379,0.33133984,1.8591847,-0.90658265,-0.07194247,2.1103125,1.2949644,-0.45563567,-0.407674,0.0,0.0,0.0,0.0,-0.11990412,-1.1270987,-1.3908877,-0.959233,0.07194247,2.0650573,2.6671293,-2.2711883,-1.0678996,0.37712014,-0.15230669,1.0213219,0.12200813,-0.25120917,-1.784586,-0.24542922,-0.30139485,-1.6222619,-2.5152278,0.44422057,0.5973004,0.6939081,-1.7673241,0.81766444,0.5236,0.5236,0.0,0.0,-0.45482013,0.059431154,0.74939454,1.2727437,-1.3404326,1.0,1.0,-0.7733990247899872,0.978475211899321,-1.6798794050445423,-6.39,3.69,6.13,0.66611266,-0.3846566,-0.6390095,-0.6862416,0.72737366
0.8663,38,0.3436117,0.3420777,0.874369,-1.9174759,0.6795535,0.5236,0.5236,0.0,0.0,-0.46172822,0.2638447,0.32060197,1.8177673,-0.8989127,0.5035973,2.877699,0.04796165,-0.23980825,-0.3117507,0.0,0.0,0.0,0.0,0.023980824,-1.8225427,-0.8633097,-1.1750604,0.26378906,1.9924232,2.383527,-2.3393373,-0.47955456,0.5880443,-0.0851312,1.2252002,-0.23896362,-0.07630776,-1.2800115,-0.106502034,-0.4181797,-1.119042,-1.5189891,0.46453467,0.6096278,0.5975081,-1.7394307,0.84716314,0.5236,0.5236,0.0,0.0,-0.40237322,0.02084849,0.78041875,1.2917421,-1.2516785,1.0,1.0,-1.8958638999788406,0.8475755179997462,-1.8936822384138474,-4.71,-1.07,5.58,0.6382055,0.14498512,-0.7560906,-0.8354878,0.549509
0.8841,39,0.37122336,0.398835,0.80533993,-1.9251459,0.6948933,0.5236,0.5236,0.0,0.0,-0.4571263,0.21475731,0.3113981,1.7778838,-0.89124286,0.9832138,3.261392,-1.3189453,-0.1918466,-0.16786577,0.0,0.0,0.0,0.0,0.11990412,-2.3741016,-0.6714631,-1.3908877,0.28776988,2.0303676,2.3702004,-2.6123002,-0.46596387,0.6513373,0.02328998,1.1213571,-0.21529187,-0.016091978,-1.4792016,-0.06730931,-0.23019916,-1.3041631,-1.655107,0.4805176,0.6110767,0.50110805,-1.7179748,0.8711916,0.5236,0.5236,0.0,0.0,-0.3908241,0.0016181646,0.81783134,1.2846289,-1.2120378,1.0,1.0,-2.2362031041177346,0.6970408700152353,-1.4431691252428112,-9.06,3.45,7.27,0.74766576,-0.28470716,-0.5999481,-0.9396926,0.34202015
0.9060,40,0.39423305,0.44332045,0.719437,-1.9389517,0.7086991,0.5236,0.5236,0.0,0.0,-0.4310486,0.159534,0.29912627,1.7395343,-0.88357294,1.2470028,3.2374113,-2.733814,-0.28776988,0.16786577,0.0,0.0,0.0,0.0,0.3117507,-2.7098331,-0.57553977,-1.6786577,0.3117507,1.7997841,2.0829868,-2.2612565,-0.055912606,0.7018759,-0.04643967,0.9281871,-0.3999113,0.022426102,-1.0580953,0.54108137,-0.35089442,-0.86938727,-0.6981213,0.46704897,0.5832247,0.40470806,-1.6640961,0.89066255,0.5236,0.5236,0.0,0.0,-0.341784,0.050919037,0.8282094,1.3238386,-1.1156378,1.0,1.0,-2.5329090769567704,0.2203478180642841,-1.485711525760173,-9.77,-1.56,9.52,0.71157295,0.1136186,-0.6933648,-0.99323833,0.11609291
0.9239,41,0.4049709,0.4555923,0.65194184,-1.9496896,0.70102924,0.5236,0.5236,0.0,0.0,-0.41417482,0.11351458,0.2883884,1.7073206,-0.877437,1.2470028,2.7817755,-3.3812962,-0.407674,0.3117507,0.0,0.0,0.0,0.0,0.57553977,-2.7098331,-0.551559,-1.8705043,0.35971236,1.6571324,1.8992182,-2.3414743,-0.12246612,0.6066052,0.045416832,0.6848128,-0.40762675,-0.02716276,-0.95155853,0.5251048,-0.18288746,-0.8273338,-0.53283334,0.44470266,0.54813665,0.33728033,-1.6384243,0.8928181,0.5236,0.5236,0.0,0.0,-0.30170625,0.07890191,0.8512369,1.3515698,-1.0192378,1.0,1.0,-2.1314833489980747,-0.01090830782496456,-1.2620912153483994,-7.89,0.23,9.75,0.6289548,-0.018334553,-0.77722555,-0.99323833,-0.11609291
0.9460,42,0.4049709,0.45099035,0.5691069,-1.9573594,0.69182533,0.5236,0.5236,0.0,0.0,-0.38042724,0.10124273,0.27611655,1.676641,-0.86823314,0.91127133,1.8225427,-3.669066,-0.4796165,0.21582742,0.0,0.0,0.0,0.0,0.8393288,-2.3501208,-0.551559,-1.7985618,0.35971236,1.624748,1.788227,-2.219699,-0.1294245,0.58658373,-0.052609615,0.63537717,-0.38682747,0.007546995,-0.9925405,0.5757738,-0.21184146,-0.89565825,-0.32215965,0.4280564,0.5159847,0.33847833,-1.6237171,0.8921092,0.5236,0.5236,0.0,0.0,-0.2817578,0.10075852,0.862158,1.361376,-0.9303377,1.0,1.0,-1.818414914421592,0.25089107997418486,-0.7199483164476609,-9.28,-0.22,9.46,0.70018613,0.01659924,-0.71376735,-0.9396926,-0.34202015
0.9663,43,0.4065049,0.45099035,0.5016117,-1.9650294,0.71483505,0.5236,0.5236,0.0,0.0,-0.3436117,0.09970875,0.26844662,1.6321555,-0.8620972,0.5275781,0.8393288,-3.669066,-0.4796165,0.023980824,0.0,0.0,0.0,0.0,1.1990412,-1.6786577,-0.5275781,-1.7266194,0.35971236,1.4162374,1.5849876,-2.163582,-0.12929167,0.49300417,-0.02544392,0.46229953,-0.37581947,-0.0724317,-0.8645519,0.5257444,-0.16720206,-0.8964069,-0.17799841,0.39721757,0.47636962,0.34480882,-1.6148795,0.882326,0.5236,0.5236,0.0,0.0,-0.25698987,0.10886955,0.8731746,1.367185,-0.8715225,1.0,1.0,-1.5653421728824144,-0.24107360293171679,-0.47887471351594413,-5.54,0.07,5.97,0.6801905,-0.0085944645,-0.732985,-0.8354878,-0.549509
0.9840,44,0.40957287,0.45099035,0.44332045,-1.9650294,0.76852435,0.5236,0.5236,0.0,0.0,-0.31753403,0.111980595,0.26844662,1.5892041,-0.8544273,0.26378906,0.28776988,-3.525181,-0.43165484,0.33573154,0.0,0.0,0.0,0.0,1.3908877,-0.959233,-0.45563567,-1.8225427,0.35971236,1.2536229,1.4249731,-1.8131121,0.08111699,0.44903955,-0.10786412,0.4337203,-0.30961466,-0.011175865,-0.70608854,0.83630437,-0.1768494,-0.8268446,0.12057863,0.36245283,0.4365991,0.38365406,-1.588536,0.8720596,0.5236,0.5236,0.0,0.0,-0.22628279,0.14479217,0.8788198,1.3776265,-0.8063756,1.0,1.0,-1.4944381720201445,-0.26070855701665296,-0.46796640569097964,-6.82,-3.46,6.78,0.66730624,0.33854538,-0.6633924,-0.6862416,-0.72737366
1.0061,45,0.39576703,0.45099035,0.38042724,-1.9542916,0.82834965,0.5236,0.5236,0.0,0.0,-0.29145634,0.12271846,0.26077673,1.5416507,-0.84368944,0.07194247,0.04796165,-3.3333344,-0.21582742,1.2709837,0.0,0.0,0.0,0.0,1.486811,-0.16786577,-0.33573154,-2.0143893,0.3836932,1.4028994,1.3384306,-1.8870877,0.17297529,0.3942992,-0.20718457,0.5071179,-0.26875022,0.023184173,-0.9783156,0.66465825,-0.2628295,-0.91971153,-0.14949249,0.35652164,0.40408254,0.39956367,-1.563544,0.86042565,0.5236,0.5236,0.0,0.0,-0.23508124,0.14918113,0.87360895,1.3746047,-0.7942946,1.0,1.0,-1.122464875188853,-0.20943951023931953,0.23234695667174513,-10.01,-0.9,8.18,0.7724665,0.069452524,-0.6312463,-0.5,-0.8660254
1.0239,46,0.38042724,0.45099035,0.36508742,-1.9404857,0.85749525,0.5236,0.5236,0.0,0.0,-0.26691267,0.14112623,0.25464082,1.4940972,-0.82834965,-0.14388494,0.023980824,-2.9496412,0.04796165,1.9664276,0.0,0.0,0.0,0.0,1.4388494,0.26378906,-0.26378906,-2.206236,0.43165484,1.2360073,1.2209568,-1.7817987,0.34858093,0.35828274,-0.21554917,0.39232838,-0.23380606,0.037273932,-0.8847001,0.7828787,-0.32319412,-0.8036558,-0.09560287,0.33627373,0.3728252,0.41963834,-1.5309883,0.8498437,0.5236,0.5236,0.0,0.0,-0.23099877,0.16363655,0.864446,1.3843973,-0.78165704,1.0,1.0,-1.0930124440614488,-0.4461497900410505,0.41233403578366035,-6.69,-0.22,7.32,0.674462,0.022179617,-0.7379764,-0.28680325,-0.9579895
1.0459,47,0.36968938,0.44332045,0.38196123,-1.9420197,0.85749525,0.5236,0.5236,0.0,0.0,-0.25464082,0.16260196,0.25310683,1.440408,-0.80380595,-0.407674,-0.023980824,-2.0143893,0.28776988,1.9664276,0.0,0.0,0.0,0.0,1.2470028,0.5995206,-0.23980825,-2.3501208,0.5995206,1.104085,1.1436131,-1.5513169,0.46199343,0.24304086,-0.25336763,0.31619447,-0.19155991,0.07729727,-0.75308263,1.0371984,-0.29624158,-0.6289935,-0.014440149,0.31093273,0.34633645,0.4547313,-1.5001137,0.83197033,0.5236,0.5236,0.0,0.0,-0.21538754,0.19774178,0.86164343,1.407739,-0.76595825,1.0,1.0,-0.8617563181722002,-0.56941366846315,0.19634954084936207,-6.37,-1.94,8.34,0.5968772,0.1817805,-0.78146875,-0.05814483,-0.9983082
1.0658,48,0.35434955,0.4249127,0.40343696,-1.9496896,0.8544273,0.5236,0.5236,0.0,0.0,-0.24543692,0.17794177,0.2638447,1.4143302,-0.7823302,-0.5995206,-0.16786577,-0.8633097,0.26378906,1.2949644,0.0,0.0,0.0,0.0,1.0071946,0.7673864,-0.16786577,-2.302159,0.815348,0.9891974,1.0315218,-1.4294355,0.5038154,0.04823681,-0.2685253,0.11516893,-0.21285829,0.024166346,-0.6681907,1.178775,-0.25041342,-0.3469162,-0.02324064,0.28423938,0.31923407,0.48797524,-1.4774067,0.80176586,0.5236,0.5236,0.0,0.0,-0.1975316,0.23236257,0.86454475,1.4499518,-0.757419,1.0,1.0,-0.3414300349213907,-1.050470043544087,0.2301652951067522,-4.62,-1.05,7.34,0.5288295,0.12018852,-0.84017503,0.17364818,-0.9848077
1.0838,49,0.33747578,0.40343696,0.4325826,-1.9558254,0.8467574,0.5236,0.5236,0.0,0.0,-0.23776703,0.19788352,0.29759228,1.4173982,-0.7669904,-0.6474822,-0.43165484,0.1918466,0.07194247,0.5035973,0.0,0.0,0.0,0.0,0.7673864,0.8393288,0.11990412,-1.918466,0.93525213,0.84657836,0.9218887,-1.1130388,0.4778628,-0.18803427,-0.3131531,0.039436862,-0.18568406,0.06609796,-0.5761574,1.3527328,-0.15544182,-0.06713424,-0.031044096,0.25396147,0.29200932,0.5395613,-1.4663777,0.7600161,0.5236,0.5236,0.0,0.0,-0.1776147,0.27053082,0.87578267,1.5032576,-0.75307584,1.0,1.0,-0.18653206380689397,-1.24354709204596,0.1636246173744684,-4.69,-2.84,7.45,0.507022,0.30702397,-0.8053974,0.39607978,-0.9182161
1.1220,50,0.3113981,0.38042724,0.4647962,-1.9619614,0.8390875,0.5236,0.5236,0.0,0.0,-0.22242722,0.23009712,0.35281557,1.440408,-0.7516506,-0.7673864,-0.7194247,0.91127133,-0.16786577,-0.023980824,0.0,0.0,0.0,0.0,0.5995206,0.959233,0.8393288,-1.0551562,0.93525213,0.85729593,0.8251192,-0.9409909,0.43479422,-0.27319834,-0.37833753,0.0013277084,-0.13178319,0.13899793,-0.5733529,1.4240158,-0.2925301,0.28504366,-0.06587432,0.23686649,0.26599753,0.58771765,-1.4640672,0.72644985,0.5236,0.5236,0.0,0.0,-0.16538411,0.30056006,0.8688166,1.570459,-0.7539529,1.0,1.0,0.5912302841130791,-1.1944597068336191,0.39706240482870997,-5.17,-2.54,7.76,0.53496027,0.2628238,-0.8029578,0.5971586,-0.8021232
1.1357,51,0.27611655,0.33900976,0.5292234,-1.9558254,0.8252817,0.5236,0.5236,0.0,0.0,-0.19788352,0.27304858,0.44332045,1.5002332,-0.7455147,-1.0551562,-1.0791371,1.5347728,-0.23980825,-0.28776988,0.0,0.0,0.0,0.0,0.6474822,1.2709837,2.0143893,0.57553977,0.69544387,0.77034247,0.7137452,-0.72752094,0.26613748,-0.3470405,-0.40762192,-0.074334025,-0.09854217,0.18053436,-0.5287099,1.454865,-0.5219583,0.5870515,-0.038096458,0.21791415,0.23925304,0.6379585,-1.4795467,0.69892585,0.5236,0.5236,0.0,0.0,-0.15358146,0.32166255,0.8416941,1.6409805,-0.7517014,1.0,1.0,1.1704614296186973,-1.27736284630335,0.7101308394051928,-4.76,-1.79,6.99,0.5506597,0.2070758,-0.8086368,0.76604444,-0.64278764
1.1564,52,0.26077673,0.31753403,0.5645049,-1.9435537,0.8222137,0.5236,0.5236,0.0,0.0,-0.18714565,0.29912627,0.49700978,1.5416507,-0.7455147,-1.0791371,-1.1990412,1.7026385,0.023980824,-0.3117507,0.0,0.0,0.0,0.0,0.6714631,1.3429261,2.5419674,1.2949644,0.43165484,0.58696,0.6757966,-0.4017051,-0.055687472,-0.43908662,-0.44547218,-0.17231207,-0.082375556,0.18190764,-0.46237212,1.2629268,-0.56215644,0.62376046,0.021168463,0.1882045,0.21941149,0.7006846,-1.5210167,0.67320687,0.5236,0.5236,0.0,0.0,-0.13986608,0.31513023,0.8214008,1.6869644,-0.744424,1.0,1.0,1.3449943548181302,-1.1780972450961724,0.5246896063807953,-5.66,-4.1,9.66,0.47470728,0.34386924,-0.8101895,0.89363265,-0.4487992
1.1782,53,0.24083498,0.28992236,0.61052436,-1.9496896,0.80380595,0.5236,0.5236,0.0,0.0,-0.17180584,0.32213596,0.5537671,1.6076119,-0.7455147,-0.9832138,-1.223022,1.8465234,0.16786577,-0.3117507,0.0,0.0,0.0,0.0,0.69544387,1.3429261,2.7098331,1.8705043,0.1918466,0.4403516,0.58624244,-0.26335776,-0.21115758,-0.4597207,-0.4671981,-0.14243998,-0.08488148,0.005170066,-0.3057128,1.1339266,-0.79567707,0.75852066,0.05571301,0.15571786,0.19855115,0.75215495,-1.5614458,0.65571207,0.5236,0.5236,0.0,0.0,-0.11597094,0.29831082,0.7858728,1.7280307,-0.7366031,1.0,1.0,1.3068152774307542,-1.3319043854281727,0.5846852994181003,-4.87,-0.84,7.03,0.56672597,0.097751506,-0.81808704,0.9730449,-0.23061587
1.1982,54,0.21322332,0.2638447,0.6672816,-1.9404857,0.7562525,0.5236,0.5236,0.0,0.0,-0.15800002,0.32366994,0.6166603,1.670505,-0.73937875,-0.93525213,-1.2470028,2.0143893,0.23980825,-0.6714631,0.0,0.0,0.0,0.0,0.6714631,1.103118,2.8297372,2.3501208,0.0959233,0.2435957,0.41483498,-0.050793532,-0.42383882,-0.39149362,-0.38854137,-0.17343715,-0.14300649,-0.2081623,-0.16557011,0.9202834,-0.74091864,0.64203376,0.086602464,0.11655029,0.1688942,0.80429363,-1.6069714,0.65203786,0.5236,0.5236,0.0,0.0,-0.08761957,0.26685485,0.7700318,1.7410219,-0.7288216,1.0,1.0,1.3439035240356338,-1.0570150282390658,0.3785182815262702,-3.72,-0.28,7.47,0.44552433,0.03353409,-0.8946416,1.0,0.0
1.2182,55,0.1840777,0.25003886,0.722505,-1.9328158,0.7102331,0.5236,0.5236,0.0,0.0,-0.14266022,0.32213596,0.6688156,1.7226604,-0.73017484,-1.0551562,-1.1750604,2.2781782,0.16786577,-1.1990412,0.0,0.0,0.0,0.0,0.6714631,0.7913672,2.8297372,2.733814,0.14388494,0.116581164,0.34998855,0.18768016,-0.54739594,-0.46212822,-0.45059502,-0.1987678,-0.12996328,-0.34030625,-0.13101447,0.7318778,-0.717215,0.53802025,0.18953449,0.08034829,0.14461538,0.85942423,-1.6466424,0.64276993,0.5236,0.5236,0.0,0.0,-0.06715319,0.2291407,0.7628976,1.7384151,-0.7138595,1.0,1.0,1.610066234964769,-1.0221084431991792,0.47669305195095124,-5.24,-1.69,10.8,0.43225598,0.13941081,-0.8909093,0.9730449,0.23061587
1.2381,56,0.15033011,0.23469906,0.78079623,-1.9374177,0.6780195,0.5236,0.5236,0.0,0.0,-0.12578642,0.30986413,0.7117671,1.759476,-0.719437,-1.2709837,-1.0551562,2.5419674,0.14388494,-1.7506001,0.0,0.0,0.0,0.0,0.69544387,0.28776988,2.7817755,2.7817755,0.26378906,0.013686538,0.41488233,0.24364555,-0.52116936,-0.56386054,-0.34822997,-0.23604971,-0.10364209,-0.5042989,-0.02707953,0.592843,-0.6841466,0.5221298,0.20074096,0.04833763,0.13653746,0.89809906,-1.6678225,0.6270359,0.5236,0.5236,0.0,0.0,-0.04447987,0.19260873,0.7619239,1.735262,-0.7037616,1.0,1.0,1.3297227238631797,-1.1475539831862718,0.3839724354387525,-2.88,-0.19,9.72,0.28403845,0.018738646,-0.9586297,0.89363265,0.4487992
1.2582,57,0.11504856,0.22089323,0.83295155,-1.9435537,0.66114575,0.5236,0.5236,0.0,0.0,-0.10891264,0.29145634,0.7332428,1.7717478,-0.70563114,-1.4628303,-0.8633097,2.6618714,0.14388494,-1.8465234,0.0,0.0,0.0,0.0,0.7194247,-0.14388494,2.4940057,2.3501208,0.407674,-0.023933806,0.62678415,0.27423948,-0.30007008,-0.88531,-0.49170658,-0.19931543,-0.057506725,-0.59293765,0.08239181,0.3658752,-0.6307428,0.5795739,0.28242654,0.025369199,0.1528809,0.9243634,-1.6584204,0.58545053,0.5236,0.5236,0.0,0.0,-0.01992874,0.14799276,0.76668006,1.7391146,-0.6895343,1.0,1.0,0.7264933011426397,-0.8181230868723419,-0.09599310885968812,-4.74,0.77,9.93,0.42972913,-0.06980832,-0.9002554,0.76604444,0.64278764
1.2781,58,0.08283496,0.21322332,0.88203895,-1.9512236,0.64120394,0.5236,0.5236,0.0,0.0,-0.093572825,0.26844662,0.7347768,1.7763498,-0.69029135,-1.6067152,-0.7194247,2.6618714,-0.04796165,-1.5347728,0.0,0.0,0.0,0.0,0.7673864,-0.5275781,1.8944851,1.6546768,0.551559,-0.03596483,0.7250078,0.32935753,-0.099671245,-1.0950695,-0.49828103,-0.16214441,-0.0071329884,-0.67868876,0.08717458,0.20252088,-0.6084003,0.5462867,0.3044178,0.0103850365,0.17250931,0.94563377,-1.6327394,0.53952336,0.5236,0.5236,0.0,0.0,-0.0047197873,0.104887746,0.771768,1.7380974,-0.6787988,1.0,1.0,0.26616271092913524,-0.6108652381980153,-0.38942658935123475,-5.65,0.23,10.54,0.47236612,-0.019229064,-0.8811927,0.5971586,0.8021232
1.2980,59,0.05522331,0.21322332,0.9173205,-1.9573594,0.6289321,0.5236,0.5236,0.0,0.0,-0.070563115,0.23623304,0.73017484,1.7763498,-0.67648554,-1.630696,-0.57553977,2.4940057,-0.21582742,-1.1270987,0.0,0.0,0.0,0.0,0.815348,-0.8633097,1.1270987,0.93525213,0.6474822,-0.08101925,0.6211011,0.2812554,0.2932282,-1.1845617,-0.5198643,-0.14742365,0.037916802,-0.7160862,0.052765388,0.023584582,-0.5419041,0.5335055,0.3456304,-0.003110903,0.17389572,0.9535858,-1.5780408,0.50301784,0.5236,0.5236,0.0,0.0,0.0009646665,0.06113111,0.7814704,1.736209,-0.66823626,1.0,1.0,0.08617563181722002,-0.49523717525339095,-0.6621342849753488,-4.98,1.32,9.5,0.46080938,-0.12214225,-0.879054,0.39607978,0.9182161
1.3181,60,0.030679615,0.21475731,0.9418642,-1.9650294,0.6059224,0.5236,0.5236,0.0,0.0,-0.04141748,0.19481556,0.7255729,1.7748158,-0.6688156,-1.5347728,-0.33573154,2.182255,-0.3117507,-0.8872905,0.0,0.0,0.0,0.0,0.93525213,-1.223022,0.407674,0.35971236,0.6714631,-0.14652345,0.45325202,0.21940094,0.60418415,-1.1695458,-0.4727623,-0.14005853,0.09680691,-0.70685583,0.0002171658,-0.058901317,-0.44599104,0.45703727,0.4223225,-0.017758885,0.15794262,0.9521716,-1.5141262,0.48261613,0.5236,0.5236,0.0,0.0,-0.00087948353,0.026628535,0.7968831,1.7274292,-0.65422946,1.0,1.0,-0.3577924966588375,-0.38179077387375954,-0.8519388411297322,-3.65,2.07,8.92,0.37026978,-0.20998861,-0.9048785,0.17364818,0.9848077
1.3523,61,0.0015339808,0.21015537,0.9648739,-1.9711653,0.5414952,0.5236,0.5236,0.0,0.0,-0.012271847,0.12885438,0.71636903,1.7671459,-0.66421366,-1.223022,-0.07194247,1.4388494,-0.28776988,-1.103118,0.0,0.0,0.0,0.0,1.1270987,-1.7266194,-0.11990412,0.0,0.43165484,-0.017092943,0.15415044,0.34215042,0.6951328,-1.0154593,-0.29546243,-0.0035425453,0.22205366,-0.7022219,-0.09675516,-0.081590466,-0.3526768,0.26516747,0.5601941,-0.013604627,0.118460625,0.963598,-1.4666824,0.48578376,0.5236,0.5236,0.0,0.0,-0.011683207,0.0036580758,0.81546223,1.7029743,-0.6320383,1.0,1.0,-0.7603090554000299,-0.06544984694978735,-0.902117057124569,-3.36,-0.73,9.86,0.3217675,0.06990783,-0.94423443,-0.05814483,0.9983082
1.3681,62,-0.0061359233,0.20862138,0.9679419,-1.9696313,0.5123496,0.5236,0.5236,0.0,0.0,-0.009203885,0.09970875,0.72403896,1.7625439,-0.6534758,-1.0551562,-0.04796165,1.0551562,-0.23980825,-1.4148686,0.0,0.0,0.0,0.0,1.0311754,-1.8465234,-0.14388494,-0.0959233,0.3117507,-0.032676578,0.05167339,0.3615456,0.6228975,-0.69767517,-0.32861817,-0.06365829,0.22050487,-0.50937504,-0.22041696,-0.04891158,-0.362195,0.08828737,0.584888,-0.012670434,0.084523715,0.9723934,-1.4454397,0.5194627,0.5236,0.5236,0.0,0.0,-0.03053162,-0.006856312,0.82565784,1.6706133,-0.61625415,1.0,1.0,-0.7570365630525404,0.34579335805137656,-0.5988660995905543,-2.6,0.98,9.54,0.26166424,-0.0986273,-0.9601065,-0.28680325,0.9579895
1.3881,63,-0.0046019424,0.18714565,0.9756118,-1.9573594,0.5031457,0.5236,0.5236,0.0,0.0,-0.016873788,0.06289321,0.722505,1.756408,-0.6442719,-0.7434055,-0.16786577,0.6714631,-0.04796165,-1.5587536,0.0,0.0,0.0,0.0,0.69544387,-1.8705043,-0.04796165,-0.1918466,0.28776988,0.43023837,0.027041703,0.62078726,0.4520485,-0.34822676,-0.3348954,0.12225236,0.35115203,-0.3650611,-0.46592724,0.05424628,-0.5186175,-0.24843116,0.5938741,0.034181576,0.0616984,1.0035948,-1.449779,0.574615,0.5236,0.5236,0.0,0.0,-0.0663917,-0.0028491588,0.81613296,1.6175249,-0.6058851,1.0,1.0,-0.6763150851478027,0.6424993308904126,-0.09272061651219876,-4.24,-0.92,7.88,0.47134858,0.102273755,-0.87599695,-0.5,0.8660254
1.4079,64,-0.0030679617,0.14879614,0.98634964,-1.9604274,0.5108156,0.5236,0.5236,0.0,0.0,-0.030679615,0.0398835,0.719437,1.7380003,-0.62586415,-0.43165484,-0.551559,0.45563567,0.0959233,-1.2709837,0.0,0.0,0.0,0.0,0.16786577,-1.8225427,-0.023980824,-0.3117507,0.43165484,0.18317106,0.32335633,0.57132035,-0.4036205,-0.17806406,-0.3248004,-0.13657977,0.101230726,-0.1585089,-0.32655275,0.25771096,-0.45477042,-0.48769742,0.7204464,0.037586056,0.07763468,1.0173689,-1.5379494,0.6247226,0.5236,0.5236,0.0,0.0,-0.0739703,0.0199016,0.81680274,1.5617452,-0.5870064,1.0,1.0,-0.41996985126113556,0.26616271092913524,-0.022907446432425576,-2.54,1.91,9.15,0.2622291,-0.19718803,-0.9446442,-0.6862416,0.72737366
1.4279,65,0.02147573,0.11351458,1.0016894,-1.9665633,0.53075737,0.5236,0.5236,0.0,0.0,-0.053689327,0.03834952,0.71636903,1.7088546,-0.6059224,-0.023980824,-1.0311754,0.43165484,0.0959233,-0.551559,0.0,0.0,0.0,0.0,-0.26378906,-1.5107919,0.0,-0.551559,0.6235014,0.38151455,0.76871556,0.33746168,-0.9357623,-0.1669344,-0.3686365,0.07110728,-0.013926596,-0.15265238,-0.5318216,0.32189658,-0.49961588,-0.8145372,0.7046007,0.05946309,0.13173237,1.0022476,-1.6343495,0.6559001,0.5236,0.5236,0.0,0.0,-0.099044345,0.039970618,0.81272006,1.4955934,-0.5772637,1.0,1.0,-0.40033489717619936,0.33488505022641196,0.038179077387375956,-4.49,-0.44,8.6,0.4623373,0.045307,-0.8855459,-0.8354878,0.549509
1.4480,66,0.044485442,0.10277671,1.0124273,-1.9680973,0.57370883,0.5236,0.5236,0.0,0.0,-0.07669904,0.04141748,0.7102331,1.6643691,-0.58444667,0.3836932,-1.2949644,0.5275781,0.0,0.3117507,0.0,0.0,0.0,0.0,-0.6714631,-0.9832138,-0.11990412,-1.0071946,0.7673864,0.38130426,1.0400397,-0.34555134,-1.250464,-0.043316796,-0.38736376,0.07067756,-0.2598991,-0.26145545,-0.54011816,0.30441514,-0.23651984,-0.787072,0.58820665,0.07256829,0.1913234,0.9248734,-1.7307495,0.6869684,0.5236,0.5236,0.0,0.0,-0.114918426,0.050263885,0.83658004,1.4586488,-0.5830576,1.0,1.0,-0.28361600344907856,0.02181661564992912,0.24434609527920614,-5.85,1.74,7.46,0.6069376,-0.18052503,-0.77397513,-0.9396926,0.34202015
1.4679,67,0.06442719,0.12118448,1.0047574,-1.9773012,0.60285443,0.5236,0.5236,0.0,0.0,-0.09970875,0.050621364,0.7040972,1.6229516,-0.5645049,0.7673864,-1.0311754,0.4796165,-0.16786577,0.9832138,0.0,0.0,0.0,0.0,-0.91127133,-0.35971236,-0.1918466,-1.4628303,0.91127133,0.5319175,1.2072208,-0.32979164,-1.2230797,-0.27125433,-0.31366584,0.26935998,-0.38270858,-0.2037378,-0.41377634,0.25281915,-0.3333388,-0.7392686,0.7363551,0.09549273,0.24379611,0.88002485,-1.7935516,0.6828156,0.5236,0.5236,0.0,0.0,-0.111808695,0.05128025,0.8412142,1.4412625,-0.57171905,1.0,1.0,-0.4319689898685966,-0.38179077387375954,0.31852258848896514,-5.93,-1.81,9.82,0.5106126,0.1558531,-0.8455676,-0.99323833,0.11609291
1.4878,68,0.079767,0.15800002,0.9679419,-1.9849712,0.62739813,0.5236,0.5236,0.0,0.0,-0.11504856,0.05982525,0.6964273,1.5769322,-0.5553011,0.959233,-0.26378906,0.0959233,-0.26378906,1.366907,0.0,0.0,0.0,0.0,-1.0311754,0.0959233,-0.23980825,-1.8705043,0.91127133,0.49236786,1.2276523,-0.3660335,-1.2651699,-0.07445128,-0.17544147,0.28610814,-0.4808484,-0.41523337,-0.12608887,0.18358743,-0.2946853,-0.44340014,0.6966482,0.105292425,0.27732292,0.8494916,-1.830368,0.7000042,0.5236,0.5236,0.0,0.0,-0.081174105,0.044966895,0.84786,1.4604175,-0.5688866,1.0,1.0,-0.5803219762881145,-0.2617993877991494,0.26616271092913524,-1.35,-0.83,5.9,0.22098094,0.13586235,-0.9657686,-0.99323833,-0.11609291
1.5078,69,0.09970875,0.2162913,0.9127186,-1.9757673,0.65040785,0.5236,0.5236,0.0,0.0,-0.11811652,0.05982525,0.68875736,1.5355147,-0.5491651,0.93525213,0.7194247,-0.7194247,-0.23980825,1.4148686,0.0,0.0,0.0,0.0,-0.91127133,0.26378906,-0.3117507,-2.0863316,0.7913672,0.7110436,1.1006131,-0.7505406,-1.2513568,0.046177126,-0.1576435,0.49775997,-0.5020461,-0.40133396,-0.36363077,0.20264407,-0.061504666,-0.6709657,0.55449367,0.13303982,0.28473508,0.7927209,-1.8510765,0.7223803,0.5236,0.5236,0.0,0.0,-0.08654754,0.043084543,0.8751655,1.4491539,-0.58140254,1.0,1.0,-0.8879362569521152,-0.032724923474893676,-0.11671889372712078,-3.54,-0.66,5.75,0.5217761,0.09728029,-0.84751767,-0.9396926,-0.34202015
1.5278,70,0.11811652,0.26691267,0.87283504,-1.9742333,0.66574764,0.5236,0.5236,0.0,0.0,-0.10431069,0.05829127,0.68875736,1.514039,-0.5491651,0.91127133,1.630696,-1.5107919,-0.0959233,1.223022,0.0,0.0,0.0,0.0,-0.551559,0.23980825,-0.28776988,-2.0143893,0.551559,0.60614043,0.8746332,-0.3944611,-1.0920426,0.19181845,-0.08986308,0.7537086,-0.503467,-0.34573773,-0.16491239,0.25431678,-0.26271084,-1.1102947,0.8040514,0.13919795,0.26658437,0.7942664,-1.8475702,0.75037,0.5236,0.5236,0.0,0.0,-0.06989977,0.047122404,0.87142825,1.3984629,-0.5639564,1.0,1.0,-1.4748032179352084,0.006544984694978735,-0.4559672670835186,-3.77,-5.39,11.25,0.2892926,0.41360402,-0.86327374,-0.8354878,-0.549509
1.5478,71,0.13805827,0.2960583,0.83295155,-1.9819032,0.6872234,0.5236,0.5236,0.0,0.0,-0.09664079,0.05829127,0.6948933,1.4940972,-0.5522331,0.93525213,2.1103125,-1.9904084,0.0,1.0551562,0.0,0.0,0.0,0.0,-0.0959233,0.11990412,-0.21582742,-1.7506001,0.26378906,0.7575951,0.8630919,-0.8400078,-0.8697632,0.29801932,-0.06172543,0.63203233,-0.538637,-0.32046807,-0.40813902,0.11170584,-0.16202733,-1.2714794,0.37026548,0.15803829,0.25453982,0.7506391,-1.8232385,0.77778393,0.5236,0.5236,0.0,0.0,-0.08423377,0.035284027,0.8792542,1.3519298,-0.59686726,1.0,1.0,-1.1846422297911512,0.11235557059713495,-0.6643159465403417,-4.67,0.16,8.47,0.4827653,-0.016540138,-0.8755936,-0.6862416,-0.72737366
1.5678,72,0.15339808,0.29759228,0.8114758,-1.9941751,0.717903,0.5236,0.5236,0.0,0.0,-0.08743691,0.05982525,0.7102331,1.4710876,-0.5491651,0.93525213,1.918466,-1.9664276,-0.023980824,1.0311754,0.0,0.0,0.0,0.0,0.26378906,0.023980824,0.0,-1.366907,0.0959233,0.6838401,0.8172399,-0.7168872,-0.3963639,0.2105805,-0.21847038,0.8857677,-0.41891214,-0.001971215,-0.66679096,0.25116113,-0.4617329,-1.694949,0.27890837,0.161967,0.24272788,0.73677474,-1.7612995,0.7854884,0.5236,0.5236,0.0,0.0,-0.11869936,0.042126533,0.85397923,1.281663,-0.6257495,1.0,1.0,-1.0079276430267254,0.28034351110158917,0.29343348049154666,-4.86,-2.39,8.28,0.49120966,0.24156195,-0.8368756,-0.5,-0.8660254
1.5878,73,0.1672039,0.29759228,0.7838642,-2.0049129,0.7455147,0.5236,0.5236,0.0,0.0,-0.09203885,0.06289321,0.71483505,1.435806,-0.54763114,0.8633097,1.2949644,-1.6546768,-0.26378906,1.1510795,0.0,0.0,0.0,0.0,0.33573154,0.023980824,0.28776988,-1.223022,0.04796165,0.6337214,0.7959826,-0.82408357,-0.023276664,0.19511026,-0.2504175,0.70599926,-0.3690278,0.05407558,-0.844331,0.17962068,-0.55549335,-1.774735,-0.111276016,0.15931235,0.233515,0.7177365,-1.6868274,0.7885641,0.5236,0.5236,0.0,0.0,-0.15713273,0.03907799,0.8294382,1.2315242,-0.6820973,1.0,1.0,-0.8519388411297322,0.21707532571679475,0.47669305195095124,-5.01,-0.91,10.01,0.44609922,0.081028,-0.891308,-0.28680325,-0.9579895
1.6078,74,0.17333983,0.2945243,0.7577865,-2.0079808,0.76852435,0.5236,0.5236,0.0,0.0,-0.111980595,0.06442719,0.70563114,1.3897866,-0.5430292,0.7673864,0.57553977,-1.4628303,-0.407674,1.2709837,0.0,0.0,0.0,0.0,0.0959233,0.04796165,0.3117507,-1.366907,0.04796165,0.5340835,0.8149465,-0.8913645,0.31744877,0.22040957,-0.37117037,0.55130726,-0.22851448,0.12650591,-0.8673758,0.53907716,-0.5269731,-1.4927177,-0.26681244,0.14775577,0.22988367,0.69958544,-1.6080716,0.7929394,0.5236,0.5236,0.0,0.0,-0.18249722,0.07319452,0.8175656,1.2296429,-0.7314596,1.0,1.0,-0.7843073326149519,0.18653206380689397,0.5290529295107811,-2.75,-2.46,9.7,0.26498213,0.23703857,-0.9346642,-0.05814483,-0.9983082
1.6445,75,0.17027187,0.28992236,0.7332428,-2.0064468,0.77772826,0.5236,0.5236,0.0,0.0,-0.14266022,0.065961175,0.6964273,1.3376312,-0.53842723,0.551559,0.0959233,-1.3189453,-0.35971236,1.223022,0.0,0.0,0.0,0.0,-0.35971236,0.07194247,0.11990412,-1.7506001,0.11990412,0.7841666,1.0087888,-0.9721868,0.8346693,0.043964066,-0.4111075,0.6175078,0.03338449,0.3639084,-1.0540644,0.9687251,-0.40366492,-0.9721047,-0.5481851,0.16583012,0.24708909,0.68061256,-1.5116715,0.77792007,0.5236,0.5236,0.0,0.0,-0.21638478,0.13662922,0.82277286,1.2805753,-0.78921425,1.0,1.0,-0.5737769915931359,0.5737769915931359,0.3785182815262702,-4.53,-2.31,9.74,0.41228768,0.2102394,-0.88646394,0.17364818,-0.9848077
1.6599,76,0.16566992,0.27765054,0.7102331,-2.0079808,0.78079623,0.5236,0.5236,0.0,0.0,-0.18561168,0.088970885,0.6872234,1.2716701,-0.5905826,0.0959233,-0.16786577,-1.1270987,-0.14388494,0.69544387,0.0,0.0,0.0,0.0,-1.103118,0.26378906,-0.26378906,-2.2541974,-0.14388494,0.77713186,0.95391196,-1.0031995,0.95827067,-0.077625506,-0.38776484,0.44517574,0.090722606,0.3622092,-0.86771834,1.4396878,-0.2701406,-0.19384384,-0.45282793,0.17597125,0.25192466,0.66612756,-1.4373505,0.7567495,0.5236,0.5236,0.0,0.0,-0.21808271,0.22178632,0.8392497,1.3769753,-0.81433135,1.0,1.0,-0.29670597283903605,0.4625122517784973,0.30870511144649704,-2.91,-1.82,7.3,0.3607455,0.22562088,-0.9049629,0.39607978,-0.9182161
1.6799,77,0.17640778,0.27765054,0.6979613,-2.0033789,0.77926224,0.5236,0.5236,0.0,0.0,-0.20708741,0.12118448,0.6872234,1.2732041,-0.64887387,0.0,-0.23980825,-0.93525213,-0.023980824,0.3836932,0.0,0.0,0.0,0.0,-1.2470028,0.5035973,-0.28776988,-2.0143893,-0.8633097,0.9636759,0.89324814,-0.9939201,0.991518,0.04726311,-0.3062203,0.4370146,0.092554525,0.4316057,-0.7878661,1.7701232,-0.40601146,0.48206416,-0.41117305,0.20071034,0.24875963,0.65836453,-1.3909786,0.756536,0.5236,0.5236,0.0,0.0,-0.21111624,0.30592412,0.83554864,1.4733753,-0.8252361,1.0,1.0,-0.11017390903214205,0.6250460383704692,0.18544123302439752,-3.45,-1.6,8.1,0.38554704,0.17880443,-0.90519744,0.5971586,-0.8021232
1.7019,78,0.18714565,0.27458256,0.6795535,-1.9987769,0.76852435,0.5236,0.5236,0.0,0.0,-0.21782528,0.17794177,0.6933593,1.3161556,-0.7117671,0.0959233,-0.1918466,-0.7673864,0.023980824,0.023980824,0.0,0.0,0.0,0.0,-1.1510795,1.0311754,-0.16786577,-1.103118,-1.7985618,1.3728905,0.9090508,-0.7973332,1.1058931,0.21977553,-0.34472027,0.6595655,0.21923395,0.55141705,-0.9969942,2.0755746,-0.8843638,0.77830595,-0.45822,0.25647524,0.24844086,0.6733654,-1.3517178,0.77365917,0.5236,0.5236,0.0,0.0,-0.22784917,0.38695195,0.78549284,1.5697753,-0.83648366,1.0,1.0,0.07744898555724837,0.7821256710499589,-0.1581704634619861,-4.75,-2.12,5.39,0.63412863,0.2830216,-0.7195691,0.76604444,-0.64278764
1.7198,79,0.20095149,0.26844662,0.6703496,-1.9972429,0.7593205,0.5236,0.5236,0.0,0.0,-0.21935925,0.23469906,0.73017484,1.3790487,-0.7731263,0.33573154,-0.1918466,-0.69544387,0.11990412,-0.11990412,0.0,0.0,0.0,0.0,-0.8633097,1.630696,0.14388494,0.21582742,-2.5419674,0.9099407,0.7104584,-0.45262992,0.6945551,0.12633348,-0.34318808,0.25342292,0.19360898,0.46858966,-0.98292714,1.7945521,-0.9894093,0.9905381,-0.43030012,0.24363923,0.22839037,0.7168363,-1.3692952,0.7745889,0.5236,0.5236,0.0,0.0,-0.23648222,0.40746638,0.74495476,1.6661754,-0.8404402,1.0,1.0,0.47451139038595835,0.4243331743911214,0.3687008044838021,-3.32,-4.89,5.87,0.39855227,0.5870243,-0.7046692,0.89363265,-0.4487992
1.7401,80,0.2316311,0.2638447,0.6718836,-1.9742333,0.75318456,0.5236,0.5236,0.0,0.0,-0.22702916,0.29912627,0.7715923,1.4496119,-0.81761175,0.6235014,-0.1918466,-0.57553977,0.23980825,-0.3117507,0.0,0.0,0.0,0.0,-0.5995206,2.302159,0.7673864,1.630696,-2.8297372,1.1934385,0.45987543,-0.3635305,1.0037584,0.3140576,-0.4470204,0.3429375,0.48002598,0.5942846,-1.2258905,2.003843,-1.6759531,1.373175,-0.5284815,0.26428738,0.19130176,0.75182873,-1.3489213,0.7939191,0.5236,0.5236,0.0,0.0,-0.26595837,0.44070417,0.65197754,1.7625754,-0.8526323,1.0,1.0,1.2326387842209952,0.4352414822160859,0.6174102228929941,-3.58,-2.62,4.72,0.5526745,0.40447128,-0.7286658,0.9730449,-0.23061587
1.7622,81,0.25310683,0.25157285,0.6979613,-1.9496896,0.7593205,0.5236,0.5236,0.0,0.0,-0.24543692,0.37735927,0.77005833,1.5293789,-0.8390875,0.8872905,-0.26378906,-0.1918466,0.551559,-0.26378906,0.0,0.0,0.0,0.0,-0.43165484,2.9256606,1.1990412,2.8057563,-2.5419674,0.94752324,0.06775324,-0.056690574,1.0527052,0.2611585,-0.6063974,0.2763086,0.5834024,0.47238165,-1.4438492,1.8703057,-2.2178538,1.2540588,-0.6784027,0.25208476,0.12983638,0.80350816,-1.3318022,0.8002273,0.5236,0.5236,0.0,0.0,-0.30543995,0.4472931,0.5555775,1.8501043,-0.8749396,1.0,0.0,1.9013180538913228,-0.0643590161672909,1.3940817400304706,-4.0,-3.21,4.41,0.59136283,0.47456867,-0.6519775,1.0,0.0
1.7802,82,0.26537868,0.23469906,0.720971,-1.9512236,0.7608545,0.5236,0.5236,0.0,0.0,-0.2623107,0.4233787,0.73784477,1.599942,-0.8452234,0.9832138,-0.3836932,0.26378906,0.69544387,-0.14388494,0.0,0.0,0.0,0.0,-0.5035973,3.0935264,0.93525213,3.261392,-1.9904084,0.74503535,-0.36026192,0.20703484,1.0995274,0.09455811,-0.4936896,0.2076833,0.69013196,0.17106622,-1.3369864,1.6228359,-2.242856,1.0101943,-0.83469564,0.22451441,0.050155643,0.86088836,-1.3168486,0.7873522,0.5236,0.5236,0.0,0.0,-0.3184426,0.4264995,0.4735151,1.8510821,-0.9039533,1.0,0.0,2.402009383057196,-0.4439681284760576,1.9122263617162871,-5.57,-2.77,9.51,0.49014926,0.24375464,-0.83686167,0.9730449,0.23061587
1.8039,83,0.26077673,0.19634955,0.7577865,-1.9680973,0.7562525,0.5236,0.5236,0.0,0.0,-0.30526218,0.44945636,0.67495155,1.6904469,-0.8528933,0.7913672,-0.69544387,0.8393288,0.5275781,0.0,0.0,0.0,0.0,0.0,-0.8633097,2.877699,-0.23980825,3.5971236,-1.103118,0.63643736,-0.44294807,0.48128256,1.0240364,-0.029793669,-0.37547934,0.17417546,0.8153103,-0.17108795,-1.0896813,1.3085444,-2.173477,0.7816002,-1.2257975,0.1971124,-0.0059214216,0.9227413,-1.3154256,0.76719195,0.5236,0.5236,0.0,0.0,-0.3015137,0.38259417,0.43936133,1.8288093,-0.96047175,1.0,0.0,2.383465259754756,-0.4406956361285682,1.1671889372712079,-4.65,0.27,8.27,0.48991272,-0.028446546,-0.8713072,0.89363265,0.4487992
1.8198,84,0.25464082,0.16260196,0.79767,-1.9834372,0.75471854,0.5236,0.5236,0.0,0.0,-0.3282719,0.44792238,0.6166603,1.756408,-0.86669916,0.45563567,-1.0071946,1.2470028,0.07194247,0.0,0.0,0.0,0.0,0.0,-1.1510795,2.2302167,-1.366907,3.7649894,-0.7194247,0.82898253,-0.51649356,0.5807365,1.2267007,-0.057998747,-0.5415002,0.30136195,0.974387,-0.24571978,-1.2226197,1.2164623,-2.421102,0.69838476,-1.334741,0.1999257,-0.046922214,0.96979845,-1.2943053,0.75227535,0.5236,0.5236,0.0,0.0,-0.3046502,0.34704274,0.39410657,1.807124,-1.0052772,1.0,0.0,1.7169676516494217,0.07744898555724837,0.47778388273344774,-8.01,-0.95,12.91,0.5261878,0.062406786,-0.8480754,0.76604444,0.64278764
1.8400,85,0.23469906,0.12885438,0.8390875,-1.9987769,0.7470486,0.5236,0.5236,0.0,0.0,-0.33133984,0.42644665,0.5445632,1.8131653,-0.877437,0.0,-1.3908877,1.6067152,-0.407674,-0.07194247,0.0,0.0,0.0,0.0,-1.2470028,1.1990412,-2.3980825,3.7889702,-0.551559,0.8125995,-0.48865703,0.75939834,1.1355063,-0.06564135,-0.5267908,0.20954797,0.9936183,-0.37953863,-1.2353065,1.0947931,-2.3330183,0.40490913,-1.3434485,0.19997539,-0.068739034,1.015899,-1.2907525,0.74256104,0.5236,0.5236,0.0,0.0,-0.30780077,0.31354496,0.3757621,1.7647654,-1.0330312,1.0,0.0,1.6166112196597477,-0.29343348049154666,0.22580197197676635,-7.17,-0.46,11.2,0.53883815,0.03456981,-0.8416997,0.5971586,0.8021232
1.8661,86,0.22549517,0.06749515,0.8881749,-2.0125828,0.7317088,0.5236,0.5236,0.0,0.0,-0.33287382,0.3911651,0.44792238,1.8392429,-0.89124286,-0.407674,-1.7506001,1.8465234,-0.6714631,-0.23980825,0.0,0.0,0.0,0.0,-0.8872905,-0.11990412,-3.261392,3.1654687,-0.5995206,0.67540324,-0.3403387,0.8955111,0.7536999,-0.09807509,-0.46344414,0.043113373,0.8290296,-0.5214203,-1.1496383,0.91653544,-2.0706873,-0.011688456,-1.1670605,0.18628557,-0.0669973,1.0571705,-1.3268015,0.73348916,0.5236,0.5236,0.0,0.0,-0.3011243,0.27562052,0.39098853,1.6976904,-1.0320448,1.0,0.0,1.8020524526841453,-0.6621342849753488,0.16253378659197193,-4.79,-0.58,9.8,0.43850845,0.053097058,-0.8971572,0.39607978,0.9182161
1.8820,87,0.22396119,0.033747576,0.92345643,-2.0202527,0.722505,0.5236,0.5236,0.0,0.0,-0.3344078,0.3834952,0.40343696,1.834641,-0.89124286,-0.4796165,-1.918466,1.9904084,-0.6714631,-0.33573154,0.0,0.0,0.0,0.0,-0.551559,-0.6235014,-3.4532387,2.422063,-0.551559,0.6370805,0.43303818,0.71882325,0.055214908,0.05364687,-0.42828605,-0.18585597,0.7030164,-0.5917207,-1.0793651,1.0392518,-1.5383857,-0.3970705,-1.1307265,0.17423941,0.011385437,1.0642647,-1.4182794,0.7432182,0.5236,0.5236,0.0,0.0,-0.2900911,0.2651375,0.45335454,1.6189072,-1.0278195,1.0,1.0,1.7704183599917478,-0.6283185307179586,0.05345070834232634,-4.23,4.04,8.08,0.42405957,-0.40501198,-0.81002396,0.17364818,0.9848077
1.9040,88,0.21015537,0.0030679617,0.9526021,-2.0325246,0.7071651,0.5236,0.5236,0.0,0.0,-0.32980588,0.3742913,0.38042724,1.8285052,-0.89124286,-0.407674,-2.0143893,1.9664276,-0.5995206,-0.5275781,0.0,0.0,0.0,0.0,-0.14388494,-0.8393288,-3.1654687,1.1510795,-0.35971236,0.66957366,0.51079464,0.7272219,-0.088932015,0.09863179,-0.64056754,0.048658907,0.50834113,-0.41498965,-1.2418725,0.87040824,-1.6930237,-0.52892894,-0.919293,0.17026103,0.06619073,1.069361,-1.4875809,0.7535541,0.5236,0.5236,0.0,0.0,-0.29972193,0.24196333,0.47531036,1.5584514,-1.0041411,1.0,1.0,0.6632251157578452,-0.05999569303730508,-0.11562806294462433,-5.72,-0.24,12.0,0.43021384,0.01805093,-0.9025465,-0.05814483,0.9983082
1.9219,89,0.19788352,0.010737865,0.9817477,-2.0371265,0.6964273,0.5236,0.5236,0.0,0.0,-0.32213596,0.3512816,0.37735927,1.8193012,-0.89124286,-0.407674,-1.7266194,1.8465234,-0.5275781,-0.57553977,0.0,0.0,0.0,0.0,0.0,-0.815348,-2.4700248,0.407674,-0.1918466,0.9010776,1.3192296,0.23694523,-0.72309345,0.17768738,-0.61602813,-0.013390368,0.43087703,-0.41873035,-1.2933767,0.98667806,-1.3529572,-0.77781767,-1.3912001,0.19102438,0.16259073,1.0233911,-1.5839809,0.7676612,0.5236,0.5236,0.0,0.0,-0.31065083,0.2396858,0.5224905,1.4972891,-1.0371246,1.0,1.0,0.5137812985558308,0.7046766854927106,-1.1813697374436618,-4.72,2.64,8.97,0.450631,-0.25204787,-0.85638994,-0.28680325,0.9579895
1.9419,90,0.18561168,0.03834952,1.0231652,-2.0401945,0.6856894,0.5236,0.5236,0.0,0.0,-0.32366994,0.31753403,0.36508742,1.7824857,-0.89124286,-0.5035973,-0.8633097,1.7506001,-0.43165484,-0.5995206,0.0,0.0,0.0,0.0,0.11990412,-0.8393288,-1.4148686,-0.28776988,-0.04796165,0.97082204,1.7536622,-0.0675664,-1.0040622,0.16486427,-0.60733515,0.11254122,0.17170848,-0.42269892,-1.2232761,0.70058984,-1.2576544,-0.8314241,-1.2496974,0.21045683,0.25899073,0.965358,-1.680381,0.77484316,0.5236,0.5236,0.0,0.0,-0.31019813,0.20971048,0.56032884,1.4552311,-1.0427645,1.0,1.0,-0.032724923474893676,0.2247111411942699,-0.5421428989007386,-5.0,1.66,7.24,0.55841285,-0.18539305,-0.80858177,-0.5,0.8660254
1.9639,91,0.19634955,0.10891264,1.0216312,-2.0401945,0.7025632,0.5236,0.5236,0.0,0.0,-0.32520393,0.28378645,0.35588354,1.7333983,-0.89124286,-0.4796165,0.407674,1.4388494,-0.26378906,-0.43165484,0.0,0.0,0.0,0.0,0.11990412,-1.1510795,-0.7194247,-0.91127133,0.0,0.8022405,1.8517325,-0.49893788,-1.3290185,0.1981658,-0.4580765,0.12605645,-0.20467596,-0.4532998,-0.78881115,0.40283105,-1.0677091,-0.49374434,-1.1596359,0.20525816,0.35539073,0.88740104,-1.7708256,0.7824825,0.5236,0.5236,0.0,0.0,-0.26648,0.1619494,0.6020264,1.4637642,-1.0371423,1.0,1.0,-0.9173886880795195,-0.15707963267948966,-0.8966629032120869,-3.43,2.77,9.42,0.32978606,-0.26632866,-0.9057098,-0.6862416,0.72737366
1.9818,92,0.20862138,0.17333983,0.99708754,-2.0340586,0.73017484,0.5236,0.5236,0.0,0.0,-0.32520393,0.25464082,0.34821364,1.6904469,-0.89277685,-0.21582742,1.486811,1.0311754,-0.14388494,-0.04796165,0.0,0.0,0.0,0.0,0.04796165,-1.4148686,-0.5275781,-1.4628303,0.0,1.2327362,1.9969712,-1.0637087,-1.2819867,0.17924741,-0.29416108,0.60536194,-0.24915607,-0.38544556,-0.87509817,-0.011641592,-0.7676082,-0.7001973,-1.1267278,0.24518853,0.4290239,0.791001,-1.8184141,0.78517425,0.5236,0.5236,0.0,0.0,-0.24887784,0.09184548,0.657055,1.4482388,-1.0304782,1.0,1.0,-1.459531586980258,-0.039269908169872414,-0.9828385350293067,-5.13,0.11,6.25,0.6343906,-0.013602916,-0.772893,-0.8354878,0.549509
2.0038,93,0.21935925,0.2561748,0.93726224,-2.0248547,0.7562525,0.5236,0.5236,0.0,0.0,-0.30526218,0.20708741,0.33900976,1.6382915,-0.8881749,0.16786577,2.5899289,-0.0959233,0.07194247,0.5995206,0.0,0.0,0.0,0.0,0.07194247,-1.6067152,-0.45563567,-2.0623507,0.0,1.1568387,1.8529667,-1.2958832,-1.1612434,0.30292222,-0.12572333,0.6148407,-0.376699,-0.34593362,-0.6894184,-0.073106505,-0.6090511,-0.58834946,-0.8635112,0.26155698,0.450991,0.6989815,-1.8348927,0.7991568,0.5236,0.5236,0.0,0.0,-0.21974854,0.04363664,0.7059279,1.4501083,-1.0001581,1.0,1.0,-1.8424131916365138,-0.3665191429188092,-1.05265170510908,-5.1,0.02,6.17,0.6371054,-0.0024984528,-0.7707727,-0.9396926,0.34202015
2.0217,94,0.23623304,0.32060197,0.87283504,-2.0187187,0.76545644,0.5236,0.5236,0.0,0.0,-0.28685442,0.16873789,0.33133984,1.6030099,-0.88203895,0.45563567,3.1894495,-1.223022,0.16786577,0.959233,0.0,0.0,0.0,0.0,0.3117507,-1.774581,-0.43165484,-2.2302167,0.04796165,1.0660912,1.6507457,-1.4198413,-0.9787725,0.44468507,0.028048897,0.5951559,-0.4701888,-0.25621644,-0.5636919,0.05584905,-0.41475236,-0.52794355,-0.50842977,0.26230332,0.4439492,0.6354848,-1.826533,0.82172257,0.5236,0.5236,0.0,0.0,-0.18969832,0.027606886,0.75468147,1.4572706,-0.9464578,1.0,1.0,-2.05294353265833,-0.5039638215133627,-1.028653427894158,-5.95,0.04,8.52,0.5725536,-0.0038490996,-0.8198583,-0.99323833,0.11609291
2.0438,95,0.2623107,0.39423305,0.7900001,-2.0110488,0.7731263,0.5236,0.5236,0.0,0.0,-0.25157285,0.11044662,0.32213596,1.5539225,-0.877437,0.69544387,3.4772196,-2.4700248,0.3117507,0.91127133,0.0,0.0,0.0,0.0,0.7194247,-2.0383701,-0.43165484,-2.206236,0.14388494,1.097294,1.6247747,-1.6943101,-0.77487475,0.6167983,0.13911968,0.5562449,-0.53588426,-0.19255608,-0.5549721,0.26500463,-0.1653266,-0.6636722,-0.35617894,0.2658714,0.43712702,0.56993985,-1.8011273,0.8524734,0.5236,0.5236,0.0,0.0,-0.17079622,0.038904596,0.8088762,1.4479952,-0.89901257,1.0,1.0,-2.4227351679246287,-0.5945027764605685,-1.4049900478554351,-5.36,1.23,6.82,0.61180323,-0.14039513,-0.7784511,-0.99323833,-0.11609291
2.0638,96,0.27458256,0.44332045,0.72864085,-2.0125828,0.79153407,0.5236,0.5236,0.0,0.0,-0.22242722,0.075165056,0.31446606,1.517107,-0.88050497,0.815348,3.405277,-3.0935264,0.28776988,0.7194247,0.0,0.0,0.0,0.0,1.1270987,-2.182255,-0.43165484,-2.1103125,0.1918466,0.80333203,1.4942677,-1.460371,-0.39408037,0.6700526,0.10118197,0.23959424,-0.5399197,-0.1186551,-0.23292115,0.69726306,-0.029160157,-0.5258379,0.22732219,0.23861606,0.419983,0.5540068,-1.7478044,0.8762493,0.5236,0.5236,0.0,0.0,-0.12724985,0.088909075,0.85500973,1.4562134,-0.8121953,1.0,1.0,-2.8012534494508987,-1.0973757671914346,-1.8860464229363723,-3.75,-1.35,8.67,0.3929904,0.14147656,-0.9085939,-0.9396926,-0.34202015
2.0819,97,0.28071848,0.4647962,0.67341757,-2.0217867,0.8222137,0.5236,0.5236,0.0,0.0,-0.20095149,0.06749515,0.31753403,1.4971652,-0.878971,0.815348,3.0215838,-3.2374113,0.1918466,0.7434055,0.0,0.0,0.0,0.0,1.2949644,-2.0143893,-0.3836932,-1.9904084,0.11990412,0.69734,1.3737684,-1.2215881,-0.25196597,0.4464126,0.06115426,0.24819581,-0.55756015,-0.055173755,-0.25318673,0.7597095,-0.0074389055,-0.7192295,0.4037339,0.21166365,0.39764664,0.5683253,-1.7015994,0.86815083,0.5236,0.5236,0.0,0.0,-0.10314859,0.1251564,0.88486195,1.441805,-0.7424638,1.0,1.0,-2.327832889847437,-0.6043202535030366,-1.4322608174178466,-3.3,-6.69,13.0,0.22017321,0.44635117,-0.867349,-0.8354878,-0.549509
2.1040,98,0.27611655,0.4693981,0.6151263,-2.0279226,0.8528933,0.5236,0.5236,0.0,0.0,-0.16873789,0.09203885,0.319068,1.4894954,-0.8513593,0.551559,2.182255,-3.1414878,-0.04796165,0.9832138,0.0,0.0,0.0,0.0,1.3908877,-1.2709837,-0.1918466,-1.5827343,0.16786577,0.7914668,1.2751964,-1.3045492,-0.16404301,0.37963617,-0.12176864,0.6005797,-0.3920854,0.115387574,-0.61095923,0.7720091,-0.2593636,-1.0588622,0.2572813,0.20490487,0.37438765,0.5686202,-1.6650839,0.8566141,0.5236,0.5236,0.0,0.0,-0.12446508,0.14813477,0.8775808,1.3991969,-0.71527016,1.0,1.0,-1.6231562043547263,-0.04363323129985824,-0.062177354602297986,-6.35,-4.79,9.89,0.5003278,0.37741262,-0.77925074,-0.6862416,-0.72737366
2.1219,99,0.2623107,0.45866024,0.59671855,-2.0309906,0.86823314,0.5236,0.5236,0.0,0.0,-0.13959225,0.1196505,0.31600004,1.4726216,-0.8084079,0.21582742,1.2949644,-2.7817755,-0.1918466,1.1750604,0.0,0.0,0.0,0.0,1.4148686,-0.3836932,-0.0959233,-1.1750604,0.4796165,0.713637,1.0967739,-1.3110678,-0.20361641,0.28967208,-0.13449627,0.4979577,-0.33486485,-0.007195743,-0.6887936,0.44599086,-0.5479071,-1.1594168,0.061828747,0.19306664,0.34259,0.5681454,-1.647132,0.84069574,0.5236,0.5236,0.0,0.0,-0.14503841,0.12931995,0.8443578,1.3635764,-0.7184992,1.0,1.0,-0.7406741013150936,0.0032724923474893677,0.8846637646046258,-4.72,-0.79,8.42,0.4873524,0.08156958,-0.86938715,-0.5,-0.8660254
2.1607,100,0.23623304,0.4387185,0.58751464,-2.0355926,0.874369,0.5236,0.5236,0.0,0.0,-0.13652429,0.14879614,0.31293207,1.438874,-0.7485826,-0.23980825,0.33573154,-2.0863316,-0.23980825,1.103118,0.0,0.0,0.0,0.0,1.2470028,0.5995206,0.0,-0.93525213,1.3189453,0.6902526,1.0068772,-1.2075598,-0.011035312,0.31958723,-0.24751659,0.59220594,-0.26577193,0.08297902,-0.8098406,0.6087235,-0.67219734,-1.348086,-0.057476327,0.18362527,0.31452173,0.57821125,-1.6171027,0.8341361,0.5236,0.5236,0.0,0.0,-0.1694871,0.13430433,0.8119949,1.3233373,-0.73236716,1.0,1.0,-0.17671458676442586,0.4276056667386107,1.1039207518864134,-3.83,-2.28,8.55,0.39721698,0.23646337,-0.8867377,-0.28680325,-0.9579895
2.1760,101,0.22396119,0.398835,0.58598065,-2.0401945,0.8713011,0.5236,0.5236,0.0,0.0,-0.15800002,0.15033011,0.32366994,1.4020585,-0.7086991,-0.6714631,-0.6474822,-0.8393288,-0.1918466,0.551559,0.0,0.0,0.0,0.0,0.4796165,0.93525213,-0.023980824,-1.1990412,2.0143893,0.59431183,0.9089492,-1.1398765,0.14828862,0.21911359,-0.35060778,0.437621,-0.21951936,0.04620846,-0.8227064,0.6787993,-0.6880214,-1.3011189,-0.17017303,0.16836636,0.28788796,0.5910191,-1.5831528,0.82015306,0.5236,0.5236,0.0,0.0,-0.18544291,0.14430253,0.7909948,1.3038905,-0.7519576,1.0,1.0,0.5345070834232634,-0.1407171709420428,1.1540989678812503,-4.46,-3.33,10.32,0.38037372,0.284001,-0.8801473,-0.05814483,-0.9983082
2.1962,102,0.2162913,0.38656315,0.5921166,-2.0401945,0.8651652,0.5236,0.5236,0.0,0.0,-0.17640778,0.15800002,0.3282719,1.3897866,-0.70563114,-0.6235014,-0.8872905,-0.33573154,-0.14388494,0.14388494,0.0,0.0,0.0,0.0,-0.0959233,0.6235014,0.11990412,-1.1750604,1.7266194,0.86558926,1.0359777,-1.181812,0.44518968,0.08698077,-0.3517584,0.47576055,-0.078958884,0.16744092,-0.9365805,0.82033134,-0.5186242,-0.99636525,-0.47299725,0.18633875,0.28461054,0.59451026,-1.5330927,0.79854995,0.5236,0.5236,0.0,0.0,-0.2064038,0.16445467,0.79533446,1.3226978,-0.79399425,1.0,1.0,0.34033920413889424,-0.09490227807719166,0.15162547876700738,-3.62,-1.33,7.82,0.41517228,0.15253568,-0.89686394,0.17364818,-0.9848077
2.2161,103,0.20708741,0.36508742,0.60285443,-2.0401945,0.8697671,0.5236,0.5236,0.0,0.0,-0.19788352,0.16413595,0.31753403,1.3729128,-0.7040972,-0.5035973,-0.93525213,0.0,-0.0959233,-0.023980824,0.0,0.0,0.0,0.0,-0.57553977,0.33573154,0.11990412,-1.0071946,1.0551562,0.90044993,1.031043,-1.1038102,0.70075303,-0.0062649474,-0.42083463,0.5014175,0.06521587,0.29736313,-0.933776,1.1993845,-0.48391643,-0.40854287,-0.4831862,0.20060825,0.28215066,0.60440516,-1.4775003,0.7762635,0.5236,0.5236,0.0,0.0,-0.21869989,0.21445125,0.80140907,1.3927643,-0.8202352,1.0,1.0,0.15926129424448257,-0.11235557059713495,0.3839724354387525,-4.68,-1.66,8.33,0.48258477,0.17117323,-0.8589597,0.39607978,-0.9182161
2.2361,104,0.20862138,0.34054375,0.6074564,-2.0401945,0.874369,0.5236,0.5236,0.0,0.0,-0.21782528,0.17794177,0.30679616,1.3729128,-0.72403896,-0.33573154,-0.93525213,0.21582742,-0.04796165,-0.023980824,0.0,0.0,0.0,0.0,-0.7913672,0.3117507,0.0,-0.69544387,0.407674,0.84792244,0.87742317,-1.0552496,0.6647275,-0.04542774,-0.32147017,0.32723638,0.048733596,0.30763683,-0.72652894,1.4811256,-0.43153834,0.23568985,-0.35924757,0.2039172,0.26531273,0.61519814,-1.4477475,0.7589753,0.5236,0.5236,0.0,0.0,-0.20535283,0.27262333,0.8102916,1.4891644,-0.82358587,1.0,1.0,0.38833575856873837,-0.02399827721492203,0.18871372537188688,-3.46,-1.74,9.06,0.35115993,0.17659487,-0.91951126,0.5971586,-0.8021232
2.2561,105,0.21475731,0.32060197,0.6151263,-2.0401945,0.8513593,0.5236,0.5236,0.0,0.0,-0.2316311,0.20862138,0.30066022,1.3974565,-0.7593205,-0.1918466,-1.0071946,0.3117507,0.0,-0.04796165,0.0,0.0,0.0,0.0,-0.91127133,0.5275781,-0.26378906,-0.35971236,-0.23980825,0.8274113,0.73717535,-0.74753195,0.5607162,-0.02473569,-0.3688588,0.27932236,0.069477975,0.3423224,-0.68712753,1.6255538,-0.5494251,0.6413825,-0.26613414,0.20385146,0.24118519,0.6524457,-1.4402969,0.7506716,0.5236,0.5236,0.0,0.0,-0.19340445,0.3219694,0.8038325,1.5855644,-0.81628495,1.0,1.0,0.6457718232379019,0.09708393964218459,0.30870511144649704,-3.51,-3.91,6.91,0.4043406,0.4504193,-0.79600954,0.76604444,-0.64278764
2.2760,106,0.2162913,0.30066022,0.62739813,-2.0309906,0.8114758,0.5236,0.5236,0.0,0.0,-0.22549517,0.25464082,0.3021942,1.4465439,-0.7884661,0.0,-1.103118,0.35971236,0.0,-0.407674,0.0,0.0,0.0,0.0,-0.7673864,0.93525213,-0.33573154,0.26378906,-0.8633097,0.83845913,0.6257615,-0.68252784,0.38669753,-0.0063111484,-0.31267077,0.16111611,0.14768557,0.36599097,-0.72104645,1.6542956,-0.95675474,0.87287176,-0.26227456,0.20491679,0.21556726,0.6812946,-1.4532284,0.7475319,0.5236,0.5236,0.0,0.0,-0.18962733,0.3544512,0.759224,1.6819644,-0.81151843,1.0,1.0,0.9435686268594344,0.1407171709420428,0.34470252726888007,-2.88,-1.17,6.95,0.37827408,0.15367384,-0.9128489,0.89363265,-0.4487992
2.2961,107,0.2162913,0.28071848,0.65040785,-2.0171847,0.7869322,0.5236,0.5236,0.0,0.0,-0.20708741,0.3037282,0.33133984,1.5109711,-0.800738,0.07194247,-1.0551562,0.45563567,0.1918466,-0.91127133,0.0,0.0,0.0,0.0,-0.33573154,1.486811,-0.07194247,1.223022,-1.223022,1.0127962,0.5470907,-0.30769914,0.47300735,0.12177936,-0.619152,0.4087703,0.33094206,0.43366516,-1.0068078,1.5469166,-1.3902694,0.9622792,-0.39079046,0.2229897,0.19232944,0.73608685,-1.4523563,0.75845706,0.5236,0.5236,0.0,0.0,-0.21593718,0.3632024,0.6891075,1.7499232,-0.8215101,1.0,1.0,0.9893835197242855,0.6272276999354621,0.5235987755982988,-4.5,-3.48,5.79,0.554397,0.42873368,-0.7133241,0.9730449,-0.23061587
2.3160,108,0.21935925,0.25770876,0.67495155,-1.9987769,0.7715923,0.5236,0.5236,0.0,0.0,-0.1994175,0.34514567,0.38963112,1.5892041,-0.80380595,0.07194247,-1.0071946,0.6714631,0.3836932,-1.2470028,0.0,0.0,0.0,0.0,0.14388494,1.9424467,0.57553977,2.2541974,-1.0791371,0.8835687,0.2733097,-0.19314894,0.48608288,0.09655639,-0.54141456,0.28822616,0.47182313,0.25911847,-1.0647432,1.6177185,-1.7331291,1.0976266,-0.64195204,0.22091071,0.15100864,0.7804172,-1.4505255,0.7624899,0.5236,0.5236,0.0,0.0,-0.23751663,0.37553328,0.61275154,1.7997166,-0.85262126,1.0,1.0,1.4246250019403717,0.7395832705325971,0.6915867161027531,-3.29,-1.21,6.36,0.45303828,0.16661894,-0.8757822,1.0,0.0
2.3359,109,0.22702916,0.23316509,0.7086991,-1.9773012,0.7608545,0.5236,0.5236,0.0,0.0,-0.21475731,0.36968938,0.44945636,1.6659031,-0.8068739,0.0959233,-1.0311754,0.9832138,0.69544387,-1.1510795,0.0,0.0,0.0,0.0,0.3117507,2.0383701,1.4628303,3.0215838,-0.7194247,0.624769,-0.0157905,-0.08785949,0.49545458,-0.08590912,-0.49490166,0.2115414,0.46964198,-0.0033915713,-0.9432488,1.3498559,-1.8322506,1.0222111,-0.75698256,0.19378334,0.097306125,0.8175444,-1.4484899,0.74666303,0.5236,0.5236,0.0,0.0,-0.23831485,0.35614556,0.55702585,1.822051,-0.88279104,1.0,1.0,1.8162332528565992,0.23780111058422737,1.0657416744990373,-3.74,-1.41,8.77,0.3880524,0.14629783,-0.9099518,0.9730449,0.23061587
2.3559,110,0.22856314,0.20555343,0.75318456,-1.9788352,0.7593205,0.5236,0.5236,0.0,0.0,-0.239301,0.38656315,0.5046797,1.7410682,-0.8206797,0.16786577,-1.1270987,1.3189453,0.7434055,-0.815348,0.0,0.0,0.0,0.0,0.0,1.8225427,2.2541974,3.5012002,-0.43165484,0.5633418,-0.2391648,0.056905918,0.7142317,-0.25651082,-0.6172904,0.2121491,0.55215144,-0.13895597,-0.9294643,1.0320673,-2.0139527,0.967471,-0.8013135,0.17136419,0.042747192,0.8542972,-1.4253907,0.7201067,0.5236,0.5236,0.0,0.0,-0.23741536,0.31273407,0.5054202,1.8299778,-0.90532595,1.0,1.0,1.8118699297266134,-0.24761858762669547,1.296997800388286,-5.43,-2.95,9.48,0.4798404,0.26068678,-0.8377324,0.89363265,0.4487992
2.3778,111,0.22089323,0.17640778,0.79153407,-1.9865052,0.7455147,0.5236,0.5236,0.0,0.0,-0.25310683,0.3834952,0.53382534,1.8116313,-0.84215546,0.14388494,-1.223022,1.630696,0.551559,-0.551559,0.0,0.0,0.0,0.0,-0.4796165,1.2949644,2.5419674,3.6930468,-0.45563567,0.497869,-0.21778661,0.12636141,0.78854275,-0.39856383,-0.5275816,0.06075144,0.64782095,-0.33896235,-0.80228215,0.9064021,-1.7316284,0.63222766,-1.0416332,0.15136541,0.012149655,0.88329446,-1.4041002,0.6899677,0.5236,0.5236,0.0,0.0,-0.22415744,0.27412066,0.5026893,1.8012094,-0.9428789,1.0,1.0,1.696241866781989,-0.2683443724941282,0.9981101659842572,-5.75,0.13,11.19,0.4570183,-0.010332587,-0.88939726,0.76604444,0.64278764
2.3977,112,0.20862138,0.1441942,0.82681566,-1.9987769,0.72403896,0.5236,0.5236,0.0,0.0,-0.25770876,0.36968938,0.53229135,1.8530488,-0.8605632,-0.023980824,-1.3189453,1.8225427,0.16786577,-0.5035973,0.0,0.0,0.0,0.0,-0.7434055,0.6235014,2.0863316,3.525181,-0.6474822,0.6329596,-0.23905939,0.19932905,0.87846655,-0.32130224,-0.5683705,0.1261389,0.7586449,-0.33327088,-0.8628522,0.78510505,-1.744947,0.45994332,-0.9965139,0.15287521,-0.008336145,0.9079896,-1.3823335,0.6796104,0.5236,0.5236,0.0,0.0,-0.22225969,0.2388229,0.4997189,1.76672,-0.96089876,1.0,1.0,1.385355093770499,0.03381575425739013,0.19198621771937624,-4.96,-0.81,9.93,0.44566813,0.07278048,-0.89223486,0.5971586,0.8021232
2.4177,113,0.19328158,0.10584468,0.8513593,-2.0125828,0.69949526,0.5236,0.5236,0.0,0.0,-0.25770876,0.35741752,0.5200195,1.8668547,-0.85749525,-0.3117507,-1.4388494,1.8225427,-0.23980825,-0.69544387,0.0,0.0,0.0,0.0,-0.6235014,0.04796165,1.2470028,2.9016798,-0.7194247,0.7635174,0.03695134,0.21576047,0.7398627,-0.10407276,-0.52014637,0.08480101,0.9539466,-0.30036208,-0.95270044,0.8563516,-1.5647856,0.037235416,-1.189539,0.16683687,0.0069734454,0.9244498,-1.3831339,0.69511896,0.5236,0.5236,0.0,0.0,-0.23010586,0.2247689,0.51595277,1.7037556,-0.99101317,1.0,1.0,1.100648259538924,0.543233729683235,-0.1832595714594046,-5.76,3.0,9.88,0.48717088,-0.25373483,-0.8356334,0.39607978,0.9182161
2.4378,114,0.18714565,0.075165056,0.85902923,-2.0217867,0.6780195,0.5236,0.5236,0.0,0.0,-0.25770876,0.3344078,0.49854377,1.8699226,-0.8513593,-0.5035973,-1.5587536,1.486811,-0.45563567,-0.959233,0.0,0.0,0.0,0.0,-0.33573154,-0.407674,0.28776988,2.0143893,-0.5035973,0.92948407,0.03386706,0.34040064,0.5656787,0.16681325,-0.56143886,0.19380538,0.876685,-0.25144604,-1.18374,0.8212917,-1.6494356,-0.15450051,-1.0370206,0.19181053,0.015850773,0.94679,-1.4010324,0.7315127,0.5236,0.5236,0.0,0.0,-0.2579175,0.21283051,0.5172281,1.6468033,-0.99382997,1.0,1.0,0.7624907169650227,0.8355763793922851,-0.5563236990731926,-5.4,0.6,11.17,0.43473682,-0.048304092,-0.8992611,0.17364818,0.9848077
2.4578,115,0.18867964,0.07669904,0.88357294,-2.0294566,0.6672816,0.5236,0.5236,0.0,0.0,-0.25770876,0.3037282,0.4878059,1.8622527,-0.8467574,-0.4796165,-1.4148686,1.1270987,-0.5275781,-1.0071946,0.0,0.0,0.0,0.0,-0.11990412,-0.7673864,-0.33573154,1.0071946,-0.14388494,1.0568078,0.7624161,0.22173811,-0.09400047,0.29943198,-0.5218335,0.08384224,0.78275174,-0.33007276,-1.3999882,0.96974117,-1.3865647,-0.6339761,-1.3362426,0.21952711,0.09403208,0.9483278,-1.4777396,0.76661086,0.5236,0.5236,0.0,0.0,-0.29622933,0.22051243,0.5442804,1.5646844,-1.0254422,1.0,1.0,0.3272492347489368,1.1650072757062149,-0.8988445647770796,-5.77,4.03,9.68,0.48211363,-0.33672756,-0.8088146,-0.05814483,0.9983082
2.4780,116,0.20095149,0.0720971,0.90658265,-2.0340586,0.6565438,0.5236,0.5236,0.0,0.0,-0.26691267,0.27304858,0.478602,1.8438449,-0.84215546,-0.21582742,-1.0071946,0.9832138,-0.4796165,-0.8872905,0.0,0.0,0.0,0.0,-0.07194247,-1.1270987,-0.5995206,0.26378906,0.11990412,1.1607916,0.9902495,0.26318958,-0.22613083,0.33668518,-0.63775253,0.40933138,0.38902122,-0.28425747,-1.4368122,0.668972,-1.7177972,-0.57868063,-0.84116757,0.24655545,0.16372421,0.95339566,-1.5369768,0.791395,0.5236,0.5236,0.0,0.0,-0.32289883,0.19504467,0.5273885,1.5209426,-0.9949021,1.0,1.0,-0.6283185307179586,0.7199483164476609,-0.8824821030396328,-5.53,-1.49,9.55,0.49660167,0.13380407,-0.85760325,-0.28680325,0.9579895
2.4981,117,0.22089323,0.084368944,0.9249904,-2.0371265,0.65040785,0.5236,0.5236,0.0,0.0,-0.28992236,0.2561748,0.46786413,1.8146993,-0.83448553,0.14388494,-0.4796165,0.959233,-0.35971236,-0.6714631,0.0,0.0,0.0,0.0,-0.23980825,-1.2470028,-0.5995206,-0.3117507,0.21582742,1.1415812,1.6284614,-0.06353528,-0.84263414,0.27126628,-0.51548463,0.11887142,0.31076336,-0.4087634,-1.3426216,0.73813635,-1.3119178,-0.8951423,-1.2415367,0.26085138,0.2601242,0.9237639,-1.6333768,0.7997237,0.5236,0.5236,0.0,0.0,-0.32948145,0.18668044,0.5578413,1.4630513,-1.0166149,1.0,1.0,-0.5650503453331641,0.3294308963139297,-0.7090400086226963,-6.17,2.39,8.35,0.57913595,-0.22433305,-0.78375775,-0.5,0.8660254
2.5180,118,0.24236897,0.12578642,0.93726224,-2.0386605,0.65194184,0.5236,0.5236,0.0,0.0,-0.31753403,0.23316509,0.4571263,1.7778838,-0.82834965,0.5275781,0.11990412,1.0071946,-0.26378906,-0.45563567,0.0,0.0,0.0,0.0,-0.57553977,-1.2470028,-0.5275781,-0.8872905,0.26378906,1.137304,1.862882,-0.4169908,-1.0491277,0.2257869,-0.5307491,0.2606774,-0.029224278,-0.43196362,-1.1711248,0.42225856,-1.2020996,-0.8597595,-0.9936221,0.26900122,0.35618463,0.87063926,-1.7131345,0.8001729,0.5236,0.5236,0.0,0.0,-0.31628135,0.15007412,0.58709484,1.4318548,-1.0048511,1.0,1.0,-0.6948592084502424,-0.1559888018969932,-0.36324665057131983,-5.41,0.62,6.61,0.6317034,-0.07239484,-0.77182245,-0.6862416,0.72737366
2.5380,119,0.25924274,0.19481556,0.9265244,-2.0401945,0.67341757,0.5236,0.5236,0.0,0.0,-0.33747578,0.2162913,0.44792238,1.7364663,-0.8206797,0.7673864,0.93525213,0.7434055,-0.16786577,-0.16786577,0.0,0.0,0.0,0.0,-0.93525213,-1.1270987,-0.5035973,-1.366907,0.3117507,1.194728,1.9702154,-0.91699976,-1.1827205,0.21257815,-0.40836108,0.4223265,-0.25135612,-0.39583108,-0.9580695,0.13459334,-0.9730741,-0.8255601,-0.9731942,0.27963355,0.41901234,0.7887636,-1.7738729,0.79912156,0.5236,0.5236,0.0,0.0,-0.28705576,0.099343814,0.6275495,1.4165568,-0.9957501,1.0,1.0,-1.1835513990086548,-0.346884188833873,-0.46796640569097964,-5.77,0.1,6.95,0.6387286,-0.01106982,-0.7693525,-0.8354878,0.549509
2.5580,120,0.27611655,0.26844662,0.89277685,-2.0417285,0.717903,0.5236,0.5236,0.0,0.0,-0.33747578,0.19481556,0.44025248,1.6919808,-0.8145438,0.8633097,1.9664276,0.1918466,-0.0959233,0.3836932,0.0,0.0,0.0,0.0,-0.959233,-1.0071946,-0.5035973,-1.7506001,0.33573154,1.2801839,1.9360017,-1.2802856,-1.0833962,0.2395739,-0.24161223,0.5753615,-0.37526116,-0.3639326,-0.8164637,-0.010369763,-0.72335607,-0.739109,-0.7871684,0.29455853,0.45328757,0.7033096,-1.8003833,0.8011903,0.5236,0.5236,0.0,0.0,-0.25535983,0.054409306,0.67679405,1.4160233,-0.97168696,1.0,1.0,-1.507528141410102,-0.533416252640767,-0.6883142237552637,-6.65,-0.58,6.83,0.69631493,0.06073122,-0.7151625,-0.9396926,0.34202015
2.5780,121,0.28378645,0.3436117,0.84215546,-2.0417285,0.75471854,0.5236,0.5236,0.0,0.0,-0.32520393,0.16260196,0.43411657,1.6566993,-0.8068739,0.7913672,2.853718,-0.5995206,-0.07194247,1.0791371,0.0,0.0,0.0,0.0,-0.6235014,-1.0551562,-0.43165484,-1.918466,0.33573154,1.1756012,1.7638011,-1.511872,-0.96463054,0.33405036,-0.022659726,0.5495817,-0.47320935,-0.32929784,-0.63697386,0.066015005,-0.46772885,-0.60728115,-0.5792968,0.29305524,0.45663264,0.62887853,-1.8044131,0.8118793,0.5236,0.5236,0.0,0.0,-0.21839331,0.035087086,0.73190355,1.4288858,-0.9364618,1.0,1.0,-1.6667894356545847,-0.6228643768054763,-0.9621127501618741,-6.46,0.11,8.48,0.6059544,-0.01031811,-0.7954324,-0.99323833,0.11609291
2.5978,122,0.2960583,0.40803888,0.7715923,-2.0417285,0.77005833,0.5236,0.5236,0.0,0.0,-0.3021942,0.124252446,0.4249127,1.6229516,-0.800738,0.69544387,3.3573153,-1.5587536,-0.023980824,1.486811,0.0,0.0,0.0,0.0,-0.04796165,-1.223022,-0.35971236,-1.918466,0.33573154,1.0743423,1.6158229,-1.6133654,-0.7305939,0.5049773,0.08925679,0.4786245,-0.50230384,-0.19794507,-0.5279195,0.3270117,-0.23094183,-0.5921998,-0.21981381,0.2820274,0.4438419,0.5740706,-1.7834272,0.8353853,0.5236,0.5236,0.0,0.0,-0.18530795,0.049593423,0.78864795,1.4381115,-0.8793785,1.0,1.0,-1.875138115111408,-0.6163193921104976,-0.9752027195518316,-6.49,0.13,10.31,0.53269583,-0.010670332,-0.8462395,-0.99323833,-0.11609291
2.6179,123,0.29759228,0.44638842,0.70563114,-2.0371265,0.77926224,0.5236,0.5236,0.0,0.0,-0.2638447,0.09203885,0.41724277,1.5830681,-0.79153407,0.551559,3.3093536,-2.422063,0.0,1.4148686,0.0,0.0,0.0,0.0,0.57553977,-1.486811,-0.33573154,-1.8705043,0.33573154,1.0814042,1.5542513,-1.5805588,-0.37734804,0.5526857,0.036001004,0.582579,-0.42353457,-0.024674103,-0.4998441,0.7098702,-0.0533488,-0.7577419,0.12809806,0.27611688,0.4300103,0.54446644,-1.7355112,0.8542597,0.5236,0.5236,0.0,0.0,-0.16264918,0.09658308,0.8404539,1.4270928,-0.8103373,1.0,1.0,-2.2187498115977915,-0.31743175770646864,-1.4529866022852793,-5.58,-2.59,7.72,0.5652741,0.26237634,-0.78206384,-0.9396926,-0.34202015
2.6379,124,0.29759228,0.46019423,0.6442719,-2.0386605,0.79767,0.5236,0.5236,0.0,0.0,-0.22702916,0.084368944,0.4065049,1.5431846,-0.7838642,0.3836932,2.7577949,-2.9016798,0.04796165,1.0311754,0.0,0.0,0.0,0.0,1.1510795,-1.486811,-0.3836932,-1.8465234,0.35971236,0.8619959,1.381262,-1.4062847,-0.2121335,0.47270164,-0.0025514327,0.48675683,-0.47560692,0.0032564364,-0.42325538,0.8460486,-0.057592038,-0.898724,0.3455346,0.25062972,0.40441236,0.5441314,-1.6902401,0.857586,0.5236,0.5236,0.0,0.0,-0.14139505,0.13839471,0.8711131,1.4063833,-0.7471689,1.0,1.0,-1.9504054391036632,-0.23780111058422737,-1.4889840181076623,-6.2,-7.61,11.97,0.4005146,0.49159938,-0.7732516,-0.8354878,-0.549509
2.6882,125,0.2883884,0.4555923,0.5660389,-2.0371265,0.8482914,0.5236,0.5236,0.0,0.0,-0.1840777,0.12578642,0.38963112,1.4864274,-0.7746603,0.07194247,1.223022,-2.973622,0.04796165,0.959233,0.0,0.0,0.0,0.0,1.5827343,-0.5275781,-0.45563567,-1.8705043,0.33573154,1.1427896,1.3767915,-1.5201522,-0.10013653,0.40256616,-0.12274683,0.7551269,-0.3173363,0.14352298,-0.83122873,0.65964043,-0.21768844,-1.1506909,0.06467745,0.2634168,0.38860658,0.5325436,-1.6518778,0.85256827,0.5236,0.5236,0.0,0.0,-0.1694399,0.14484087,0.87349904,1.3687608,-0.7373536,1.0,1.0,-1.1999138607461015,0.3436116964863836,-0.1974403716318585,-8.08,-3.81,9.35,0.6248284,0.29462823,-0.72303784,-0.6862416,-0.72737366
2.7039,126,0.27458256,0.44638842,0.5506991,-2.0355926,0.8620972,0.5236,0.5236,0.0,0.0,-0.15800002,0.15339808,0.42184472,1.440408,-0.7470486,-0.23980825,0.0959233,-2.0623507,0.023980824,1.0791371,0.0,0.0,0.0,0.0,1.3189453,0.6714631,-0.21582742,-1.7506001,0.45563567,0.7363555,1.1318175,-1.5123587,-0.047398,0.36856237,-0.08463885,0.44258484,-0.36164966,-0.029454239,-0.6373194,0.49707696,-0.5029804,-1.194926,0.09054419,0.23044564,0.3546257,0.5263703,-1.6235864,0.8461572,0.5236,0.5236,0.0,0.0,-0.16687588,0.13245222,0.8464014,1.341764,-0.7288777,1.0,1.0,-0.4428772976935611,0.0272707695624114,0.7624907169650227,-2.86,-0.87,6.72,0.38885516,0.118288115,-0.9136737,-0.5,-0.8660254
2.7241,127,0.27611655,0.44025248,0.5445632,-2.0371265,0.8651652,0.5236,0.5236,0.0,0.0,-0.16566992,0.159534,0.45866024,1.4235342,-0.7332428,-0.3117507,-0.16786577,-1.2709837,0.023980824,0.815348,0.0,0.0,0.0,0.0,0.93525213,0.8633097,0.33573154,-1.5107919,0.57553977,0.6555157,0.99768054,-1.3450027,0.14205231,0.31665275,-0.1859162,0.43655205,-0.30493397,0.0071093813,-0.6780174,0.7425913,-0.37854955,-1.2563628,0.058241855,0.20257898,0.3208235,0.5394019,-1.5876666,0.8371196,0.5236,0.5236,0.0,0.0,-0.16940726,0.14957047,0.8425859,1.319422,-0.72702247,1.0,1.0,-0.3327033886614191,-0.3577924966588375,0.5475970528132209,-3.57,-2.85,7.5,0.40652946,0.32454032,-0.8540535,-0.28680325,-0.9579895
2.7438,128,0.26691267,0.42798063,0.5430292,-2.0401945,0.8697671,0.5236,0.5236,0.0,0.0,-0.17640778,0.16260196,0.47400007,1.3989905,-0.717903,-0.28776988,-0.28776988,-0.6474822,0.0,0.4796165,0.0,0.0,0.0,0.0,0.43165484,0.6235014,0.93525213,-1.2709837,0.7194247,0.6715134,0.9685454,-1.1790906,0.38815218,0.16722393,-0.3304822,0.38559866,-0.20701027,0.13036487,-0.77356666,0.9595226,-0.31666702,-1.1003776,-0.06287235,0.18745874,0.29762864,0.5638121,-1.5415049,0.81675416,0.5236,0.5236,0.0,0.0,-0.18048103,0.18153456,0.84648484,1.3216155,-0.7380207,1.0,1.0,-0.34579335805137656,-0.5945027764605685,0.6883142237552637,-4.13,-3.87,7.09,0.45524493,0.42658544,-0.78152215,-0.05814483,-0.9983082
2.7641,129,0.24850489,0.4065049,0.5506991,-2.0417285,0.875903,0.5236,0.5236,0.0,0.0,-0.1840777,0.17027187,0.4693981,1.3775147,-0.7086991,-0.28776988,-0.3836932,-0.23980825,-0.04796165,0.28776988,0.0,0.0,0.0,0.0,-0.023980824,0.3836932,1.103118,-1.103118,0.69544387,1.197436,1.1526895,-1.3102008,0.70747924,0.12358148,-0.35142484,0.6755407,0.031090237,0.3540184,-1.1008381,1.0290368,-0.30465996,-0.8222555,-0.50850284,0.23097886,0.30212614,0.5653472,-1.481875,0.80017066,0.5236,0.5236,0.0,0.0,-0.21985243,0.20766443,0.85002494,1.3507438,-0.7891827,1.0,1.0,-0.11453723216212788,0.22907446432425577,0.26616271092913524,-6.54,-1.45,8.36,0.6104857,0.13535233,-0.78037614,0.17364818,-0.9848077
2.7840,130,0.23009712,0.38042724,0.558369,-2.0447965,0.878971,0.5236,0.5236,0.0,0.0,-0.19328158,0.19021362,0.4647962,1.3667768,-0.7102331,-0.4796165,-0.6474822,0.0,-0.0959233,0.23980825,0.0,0.0,0.0,0.0,-0.3117507,0.35971236,0.69544387,-1.0311754,0.57553977,1.0637498,1.0299846,-1.1648191,0.83167946,0.11863422,-0.38141045,0.53465754,0.10588421,0.39982715,-0.97223735,1.4197713,-0.41430524,-0.20686713,-0.35463673,0.2437223,0.29255414,0.5808064,-1.4336771,0.78972584,0.5236,0.5236,0.0,0.0,-0.23061521,0.2624158,0.84118444,1.4297595,-0.8044933,1.0,1.0,0.2912518189265537,0.2901609881440573,0.6043202535030366,-5.55,-2.74,9.42,0.49239272,0.24309118,-0.8357368,0.39607978,-0.9182161
2.8039,131,0.23776703,0.35588354,0.5660389,-2.0447965,0.877437,0.5236,0.5236,0.0,0.0,-0.21475731,0.21475731,0.4647962,1.3698448,-0.7317088,-0.551559,-0.93525213,0.16786577,-0.07194247,0.1918466,0.0,0.0,0.0,0.0,-0.45563567,0.57553977,0.1918466,-0.815348,0.23980825,1.1907116,0.93911123,-1.1532552,0.90103376,0.16070709,-0.29526442,0.42655253,0.13175328,0.45121568,-0.93996894,1.7844888,-0.63212025,0.47865146,-0.36803234,0.26406455,0.27772364,0.59123826,-1.3978229,0.7876662,0.5236,0.5236,0.0,0.0,-0.23384604,0.33173835,0.81409866,1.5261595,-0.8150192,1.0,1.0,0.6403176693254197,0.14617132485452508,0.7035858547102141,-4.32,-1.23,6.99,0.5199336,0.14803664,-0.84128135,0.5971586,-0.8021232
2.8238,132,0.25157285,0.32980588,0.5829127,-2.0447965,0.8482914,0.5236,0.5236,0.0,0.0,-0.2316311,0.25003886,0.4709321,1.4020585,-0.76238847,-0.35971236,-1.1510795,0.35971236,-0.04796165,0.0,0.0,0.0,0.0,0.0,-0.6235014,0.91127133,-0.023980824,-0.28776988,-0.26378906,0.9396895,0.7591197,-0.93786603,0.60447043,0.033808663,-0.21918592,0.10448286,0.04807062,0.35256314,-0.7429918,1.8780133,-0.62853897,0.84440774,-0.23064749,0.25116768,0.25082615,0.6190364,-1.4059668,0.7737406,0.5236,0.5236,0.0,0.0,-0.21608682,0.38268435,0.79820526,1.6225595,-0.80759627,1.0,1.0,0.7264933011426397,-0.1287180323345818,0.20398535632683729,-2.58,-1.59,7.12,0.33341318,0.20547558,-0.920117,0.76604444,-0.64278764
2.8438,133,0.26844662,0.30833015,0.5936506,-2.0447965,0.81914574,0.5236,0.5236,0.0,0.0,-0.239301,0.29912627,0.4954758,1.4618837,-0.7853982,0.0959233,-1.223022,0.4796165,-0.023980824,-0.45563567,0.0,0.0,0.0,0.0,-0.7434055,1.3429261,0.11990412,0.5275781,-0.815348,0.80161285,0.65576506,-0.6544059,0.25544307,0.027348153,-0.26639464,0.028696127,0.09366903,0.3663878,-0.7345014,1.6687744,-0.8092371,0.9105559,-0.18326525,0.22962192,0.22435221,0.66406125,-1.4457557,0.7647392,0.5236,0.5236,0.0,0.0,-0.20458223,0.39232805,0.7705995,1.7189596,-0.7984043,1.0,1.0,1.1137382289288815,0.009817477042468103,0.1930770485018727,-1.96,-2.01,5.65,0.3106645,0.31858963,-0.89553803,0.89363265,-0.4487992
2.8640,134,0.26537868,0.28532043,0.6135923,-2.0294566,0.79767,0.5236,0.5236,0.0,0.0,-0.22856314,0.35741752,0.5553011,1.5355147,-0.79153407,0.3836932,-1.1990412,0.6235014,0.023980824,-0.91127133,0.0,0.0,0.0,0.0,-0.5995206,1.7985618,0.7194247,1.6067152,-1.0551562,1.0900952,0.54601455,-0.29368046,0.42189884,0.14806253,-0.5626106,0.31831738,0.33001956,0.4936363,-1.0271827,1.7497342,-1.351996,1.047285,-0.37383443,0.24554268,0.19749278,0.7271487,-1.4529836,0.77140975,0.5236,0.5236,0.0,0.0,-0.22694762,0.40621024,0.6997601,1.7780362,-0.81194603,1.0,1.0,1.5675238344474072,0.4166973589136462,0.667588438887831,-4.02,-2.9,4.87,0.5785083,0.41733187,-0.7008297,0.9730449,-0.23061587
2.8840,135,0.25924274,0.2623107,0.6458059,-2.0095148,0.7761943,0.5236,0.5236,0.0,0.0,-0.22089323,0.3926991,0.6151263,1.6091459,-0.79153407,0.3117507,-1.1750604,0.815348,0.26378906,-1.1510795,0.0,0.0,0.0,0.0,-0.1918466,2.182255,1.5347728,2.5899289,-0.8633097,1.0563196,0.31146508,-0.13130802,0.54973805,0.16782305,-0.6031158,0.3269082,0.49987677,0.34711525,-1.1474215,1.8390173,-1.7621517,1.2088335,-0.61989945,0.25171757,0.15792218,0.78123844,-1.4445363,0.77738816,0.5236,0.5236,0.0,0.0,-0.2523907,0.42346787,0.61624086,1.8277051,-0.84467757,1.0,1.0,2.0005836550985,0.47560222116845474,1.0908307824964558,-5.54,-2.08,7.13,0.5978982,0.22448161,-0.7694971,1.0,0.0
2.9079,136,0.2623107,0.239301,0.6979613,-2.0033789,0.7669904,0.5236,0.5236,0.0,0.0,-0.23776703,0.42644665,0.65961176,1.7027186,-0.796136,0.07194247,-1.1270987,1.1510795,0.551559,-1.0311754,0.0,0.0,0.0,0.0,0.04796165,2.1582742,2.32614,3.3573153,-0.407674,0.8481488,0.04242143,-0.029230509,0.6742022,0.040987767,-0.61852443,0.3028885,0.55534244,0.16767304,-1.196839,1.5865769,-1.9738765,1.1055217,-0.725366,0.23460545,0.107275456,0.8239,-1.4270216,0.7682917,0.5236,0.5236,0.0,0.0,-0.27259833,0.40857843,0.54495686,1.8471752,-0.87486315,1.0,1.0,1.8336865453765423,0.40906154343617096,1.201004691528598,-5.67,-3.96,10.34,0.45579883,0.3183357,-0.8312099,0.9730449,0.23061587
2.9238,137,0.2623107,0.21782528,0.7347768,-2.0064468,0.76392245,0.5236,0.5236,0.0,0.0,-0.25464082,0.4371845,0.6534758,1.759476,-0.8084079,0.0,-1.103118,1.5347728,0.57553977,-0.815348,0.0,0.0,0.0,0.0,-0.07194247,1.918466,2.2541974,3.5971236,-0.26378906,0.91123945,-0.22629806,0.1215844,1.0582895,-0.12021467,-0.658567,0.3516551,0.789415,-0.02768003,-1.1443249,1.3070093,-2.1447515,1.1690973,-1.0027314,0.23064722,0.050015472,0.8645784,-1.378104,0.7467136,0.5236,0.5236,0.0,0.0,-0.2794715,0.371688,0.48509896,1.8652148,-0.92071104,1.0,1.0,1.579522973054868,0.234528618236738,0.8050331174823845,-6.72,-2.18,9.94,0.5510522,0.17876399,-0.8150981,0.89363265,0.4487992
2.9439,138,0.25770876,0.18254371,0.7715923,-2.0171847,0.75318456,0.5236,0.5236,0.0,0.0,-0.28225246,0.4325826,0.6166603,1.8269712,-0.83141756,-0.023980824,-1.1510795,1.8465234,0.3117507,-0.5995206,0.0,0.0,0.0,0.0,-0.5035973,1.2709837,1.3429261,3.6450853,-0.3836932,0.70615,-0.27570522,0.13710144,0.952839,-0.33470336,-0.49423632,0.09765572,0.8279082,-0.2619894,-0.9529167,1.0389259,-1.80601,0.67767817,-1.181589,0.20776333,0.010718761,0.8905372,-1.3592985,0.7123178,0.5236,0.5236,0.0,0.0,-0.26445457,0.3227454,0.48305836,1.8268968,-0.9661055,1.0,1.0,1.5806138038373647,-0.05235987755982988,0.2694352032766246,-4.41,-0.14,9.7,0.4138379,0.013137712,-0.9102558,0.76604444,0.64278764
2.9639,139,0.25157285,0.13345633,0.80380595,-2.0294566,0.7363108,0.5236,0.5236,0.0,0.0,-0.29912627,0.42031074,0.5553011,1.8714565,-0.86669916,-0.04796165,-1.3908877,1.9664276,-0.0959233,-0.45563567,0.0,0.0,0.0,0.0,-0.91127133,0.6235014,-0.0959233,3.4772196,-0.7434055,0.9067454,-0.20794573,0.30850092,0.9876183,-0.05234764,-0.5094421,0.15635005,1.0448295,-0.2605427,-1.047481,1.0077778,-1.8461323,0.34842604,-1.2488368,0.21409254,-0.006083317,0.9232524,-1.3445373,0.7199159,0.5236,0.5236,0.0,0.0,-0.26490083,0.29026505,0.4778218,1.7709807,-1.000067,1.0,1.0,1.856593991808968,0.4505131131710363,0.025089107997418484,-5.33,0.0,9.72,0.48081023,-0.0,-0.8768247,0.5971586,0.8021232
2.9838,140,0.24083498,0.09050487,0.83141756,-2.0371265,0.71483505,0.5236,0.5236,0.0,0.0,-0.30066022,0.398835,0.49700978,1.8806604,-0.8697671,-0.1918466,-1.7266194,1.7985618,-0.35971236,-0.5995206,0.0,0.0,0.0,0.0,-0.91127133,0.0,-1.486811,2.853718,-1.0071946,0.8758799,-0.003926508,0.44179904,0.6622585,0.06585885,-0.46529043,0.063488044,0.9867167,-0.36135328,-1.0611234,1.0308193,-1.7181425,-0.059424452,-1.184134,0.21480353,0.0042373575,0.9562114,-1.3682165,0.73629546,0.5236,0.5236,0.0,0.0,-0.26653284,0.27308097,0.48747885,1.696646,-1.0139736,1.0,1.0,1.9514962698861598,0.0272707695624114,-0.0643590161672909,-6.43,1.02,10.81,0.5095455,-0.08082992,-0.8566387,0.39607978,0.9182161
3.0038,141,0.24083498,0.06289321,0.85902923,-2.0417285,0.69949526,0.5236,0.5236,0.0,0.0,-0.30066022,0.3742913,0.46172822,1.8852624,-0.8620972,-0.23980825,-1.918466,1.5827343,-0.43165484,-0.7673864,0.0,0.0,0.0,0.0,-0.6714631,-0.5275781,-2.2781782,1.9424467,-0.8393288,0.7985167,0.43425357,0.3699146,0.19766916,0.19572392,-0.46020183,-0.027555445,0.7916441,-0.45686677,-1.1372136,1.044997,-1.5021783,-0.37904233,-1.1565368,0.2074938,0.054247774,0.9687983,-1.4288831,0.7591097,0.5236,0.5236,0.0,0.0,-0.27512106,0.2641883,0.51486945,1.6200833,-1.0195578,1.0,1.0,1.27736284630335,0.018544123302439753,-0.23343778745424157,-6.64,3.8,10.64,0.5066795,-0.28996718,-0.8119082,0.17364818,0.9848077
3.0239,142,0.23623304,0.05829127,0.8989127,-2.0463305,0.6856894,0.5236,0.5236,0.0,0.0,-0.30066022,0.34667966,0.44945636,1.8913983,-0.85749525,-0.21582742,-1.6786577,1.5107919,-0.35971236,-0.815348,0.0,0.0,0.0,0.0,-0.3117507,-0.91127133,-2.206236,1.0791371,-0.407674,1.0114774,0.88983107,0.21868542,-0.2667499,0.26361448,-0.5218392,0.08735678,0.6125018,-0.4009809,-1.2726532,0.95863646,-1.3879542,-0.5866417,-1.234882,0.22440402,0.12981178,0.96122754,-1.5117248,0.77958727,0.5236,0.5236,0.0,0.0,-0.29381797,0.25021663,0.5427263,1.5533859,-1.0307429,1.0,1.0,0.5988660995905543,0.4319689898685966,-1.0177451200691934,-4.98,1.88,8.6,0.4923824,-0.1858793,-0.850299,-0.05814483,0.9983082
3.0439,143,0.23009712,0.0720971,0.9280584,-2.0493984,0.67341757,0.5236,0.5236,0.0,0.0,-0.30066022,0.32520393,0.4387185,1.8729905,-0.8528933,-0.21582742,-1.0791371,1.5827343,-0.26378906,-0.7673864,0.0,0.0,0.0,0.0,-0.0959233,-1.1270987,-1.6786577,0.407674,0.023980824,1.041123,1.4062638,-0.11219129,-0.74749607,0.2395199,-0.52683306,0.05353404,0.3277509,-0.42490828,-1.1476792,0.8351296,-1.1891892,-0.72199893,-1.302912,0.23751472,0.22621179,0.9235974,-1.6081249,0.78946435,0.5236,0.5236,0.0,0.0,-0.2925387,0.22948295,0.57931685,1.4998317,-1.0442569,1.0,1.0,0.35015668118136234,0.4112432050011639,-1.0722866591940163,-4.15,2.28,8.13,0.44109568,-0.24233688,-0.86412233,-0.28680325,0.9579895
3.0640,144,0.23316509,0.111980595,0.9403302,-2.0493984,0.6672816,0.5236,0.5236,0.0,0.0,-0.30526218,0.30526218,0.42644665,1.8438449,-0.8452234,-0.16786577,-0.16786577,1.5107919,-0.16786577,-0.6474822,0.0,0.0,0.0,0.0,-0.07194247,-1.1510795,-1.0551562,-0.0959233,0.21582742,1.2740647,1.9118369,-0.6476304,-0.99263775,0.2531403,-0.46209496,0.24654715,0.21140264,-0.42399445,-1.2873201,0.50777835,-0.9628629,-0.94355243,-1.6234974,0.2686753,0.32261178,0.8474754,-1.6926866,0.79675263,0.5236,0.5236,0.0,0.0,-0.30573523,0.18430762,0.6239038,1.4455438,-1.0844239,1.0,1.0,-0.2748893571891069,0.38724492778624187,-0.9839293658118033,-6.97,3.61,7.29,0.65064335,-0.3369903,-0.68051505,-0.5,0.8660254
3.0861,145,0.24390295,0.18100974,0.9341943,-2.0493984,0.6718836,0.5236,0.5236,0.0,0.0,-0.30833015,0.2699806,0.41570878,1.8070294,-0.8375535,-0.07194247,0.8633097,1.1750604,-0.0959233,-0.5035973,0.0,0.0,0.0,0.0,-0.0959233,-1.1750604,-0.69544387,-0.7434055,0.26378906,1.3150607,2.093725,-1.1668458,-1.1678815,0.341485,-0.30619597,0.4558624,-0.107644916,-0.38335976,-1.1014448,0.17437744,-0.74884635,-0.9184466,-1.438457,0.29147127,0.4189764,0.7510754,-1.7601202,0.8099601,0.5236,0.5236,0.0,0.0,-0.29506564,0.123862326,0.6720576,1.4154816,-1.0900201,1.0,1.0,-0.9173886880795195,-0.02945243112740431,-0.9130253649495337,-5.12,2.33,6.1,0.6170319,-0.2807977,-0.7351356,-0.6862416,0.72737366
3.1059,146,0.2638447,0.25310683,0.8866409,-2.0493984,0.68875736,0.5236,0.5236,0.0,0.0,-0.31293207,0.2316311,0.40343696,1.7671459,-0.83141756,0.1918466,1.918466,0.35971236,-0.04796165,-0.1918466,0.0,0.0,0.0,0.0,-0.14388494,-1.3189453,-0.57553977,-1.2949644,0.28776988,1.4494652,2.0145757,-1.6120155,-1.1057286,0.4137145,-0.038673602,0.7108028,-0.36025208,-0.3059559,-0.8369446,-0.12278088,-0.4870026,-0.7672138,-1.1695688,0.3185893,0.46112344,0.65467536,-1.7943649,0.8251075,0.5236,0.5236,0.0,0.0,-0.26221386,0.05787931,0.72713435,1.4125676,-1.066489,1.0,1.0,-1.6035212502697902,-0.09053895494720585,-1.4835298641951802,-3.9,0.92,5.98,0.5417879,-0.12780638,-0.83074147,-0.8354878,0.549509
3.1257,147,0.28685442,0.3282719,0.81607777,-2.0493984,0.72403896,0.5236,0.5236,0.0,0.0,-0.3113981,0.19021362,0.39423305,1.7303303,-0.8252817,0.551559,2.7817755,-0.7913672,0.0,0.3117507,0.0,0.0,0.0,0.0,-0.11990412,-1.5827343,-0.551559,-1.630696,0.33573154,1.5334882,2.0018692,-1.9249095,-0.90199727,0.5141928,0.02399741,0.7923591,-0.4111504,-0.22568701,-0.8828494,-0.091663666,-0.2731734,-0.87998956,-0.9963624,0.3432624,0.485141,0.55827534,-1.7945387,0.8442438,0.5236,0.5236,0.0,0.0,-0.24709328,0.02140122,0.7815633,1.3995416,-1.0350497,1.0,1.0,-1.8369590377240317,-0.31088677301149,-1.3602659857730806,-7.06,1.19,6.7,0.71999705,-0.12135929,-0.6832833,-0.9396926,0.34202015
3.1457,148,0.31446606,0.39576703,0.7439807,-2.0447965,0.7577865,0.5236,0.5236,0.0,0.0,-0.30066022,0.14266022,0.38656315,1.6904469,-0.81914574,0.8633097,3.3093536,-1.9664276,0.0,0.91127133,0.0,0.0,0.0,0.0,-0.023980824,-1.8705043,-0.5275781,-1.7985618,0.33573154,1.3632534,1.787352,-1.8887312,-0.54774,0.6443232,0.1103435,0.6292179,-0.49719572,-0.10770038,-0.6212853,0.33759895,-0.12815222,-0.68461525,-0.39646143,0.3410428,0.47809982,0.5014107,-1.7592173,0.86873865,0.5236,0.5236,0.0,0.0,-0.2118645,0.042440627,0.8287227,1.4112635,-0.95619595,1.0,1.0,-2.1140300564781316,-0.6021385919380436,-1.5195272800175632,-6.81,-0.18,8.48,0.62606597,0.016548,-0.7795946,-0.99323833,0.11609291
3.1660,149,0.3344078,0.44332045,0.66574764,-2.0432625,0.7884661,0.5236,0.5236,0.0,0.0,-0.28378645,0.10431069,0.37735927,1.6520973,-0.8130098,1.0551562,3.3812962,-2.9496412,0.04796165,1.3429261,0.0,0.0,0.0,0.0,0.1918466,-2.0383701,-0.4796165,-1.8944851,0.3117507,1.2804596,1.6678411,-1.9215153,-0.34235752,0.6698269,0.15592852,0.53887224,-0.48436752,-0.05832331,-0.54930234,0.56722075,-0.019003212,-0.6979677,-0.09392801,0.33143166,0.46192402,0.4667749,-1.7174861,0.88598585,0.5236,0.5236,0.0,0.0,-0.18352894,0.07802646,0.86793333,1.4169613,-0.87863034,1.0,1.0,-2.1882065496878904,-0.519235452468313,-1.4988014951501305,-7.18,-0.86,10.08,0.5787719,0.06932365,-0.81253767,-0.99323833,-0.11609291
3.2019,150,0.34054375,0.46019423,0.59978646,-2.0463305,0.8130098,0.5236,0.5236,0.0,0.0,-0.25464082,0.088970885,0.3666214,1.6137478,-0.80533993,1.0311754,2.9496412,-3.405277,0.04796165,1.5107919,0.0,0.0,0.0,0.0,0.5275781,-1.918466,-0.45563567,-1.8944851,0.3117507,1.0653889,1.4621245,-1.6366385,-0.1776752,0.5710867,0.02875744,0.44436544,-0.43556806,-0.02573748,-0.45137215,0.8282769,-0.059658427,-0.7419952,0.29913473,0.30415788,0.43164685,0.4744811,-1.6759793,0.8864602,0.5236,0.5236,0.0,0.0,-0.15673459,0.12548357,0.88739413,1.4159772,-0.79278475,1.0,1.0,-1.7715091907742444,-0.2672535417116317,-1.1835513990086548,-5.98,-5.3,9.28,0.48831576,0.43278822,-0.75778764,-0.9396926,-0.34202015
3.2181,151,0.3436117,0.4632622,0.5031457,-2.0171847,0.8636312,0.5236,0.5236,0.0,0.0,-0.2162913,0.09510681,0.34821364,1.5447186,-0.79306805,0.57553977,1.5107919,-3.405277,0.11990412,1.486811,0.0,0.0,0.0,0.0,1.0551562,-1.0791371,-0.4796165,-1.9664276,0.33573154,1.3935934,1.5170071,-1.7892823,-0.19604449,0.4880977,-0.083567224,0.70329547,-0.34671524,0.077774286,-0.9276388,0.51078445,-0.20041946,-1.0680611,-0.032225862,0.32061407,0.41896883,0.46384043,-1.652912,0.8784459,0.5236,0.5236,0.0,0.0,-0.18828465,0.122208595,0.88499457,1.3827803,-0.7744134,1.0,1.0,-0.9304786574694769,0.5486878835957173,0.04254240051736178,-7.35,-2.11,7.68,0.6781845,0.1946897,-0.7086336,-0.8354878,-0.549509
3.2521,152,0.33900976,0.4555923,0.4632622,-2.0079808,0.877437,0.5236,0.5236,0.0,0.0,-0.19788352,0.12271846,0.33287382,1.4741555,-0.7715923,0.0959233,0.3117507,-2.6378906,0.5035973,1.1990412,0.0,0.0,0.0,0.0,1.103118,0.04796165,-0.551559,-2.0623507,0.43165484,1.0306715,1.3622804,-1.5066395,0.024832893,0.4621664,-0.17608874,0.59079367,-0.33075097,0.16496387,-0.7525157,0.80173177,-0.38914296,-1.0787749,0.20295575,0.2941956,0.39588934,0.48572028,-1.6169839,0.8710442,0.5236,0.5236,0.0,0.0,-0.18970238,0.14933833,0.86468244,1.3617907,-0.73987246,1.0,1.0,-1.0417433972841155,0.5454153912482279,0.34033920413889424,-6.36,-6.03,9.42,0.49430683,0.46865883,-0.7321337,-0.6862416,-0.72737366
3.2680,153,0.33900976,0.45405832,0.45866024,-1.9803692,0.874369,0.5236,0.5236,0.0,0.0,-0.19788352,0.13345633,0.3344078,1.440408,-0.76545644,0.0,0.04796165,-2.0143893,0.6714631,0.8872905,0.0,0.0,0.0,0.0,0.8393288,0.35971236,-0.4796165,-2.1103125,0.4796165,0.6345337,1.1812233,-1.4265409,-0.047306895,0.3568983,-0.09326475,0.2479446,-0.45467594,-0.038778592,-0.50786245,0.73535764,-0.40592745,-1.0625218,0.25236127,0.23873074,0.36393595,0.50685805,-1.6026411,0.85607636,0.5236,0.5236,0.0,0.0,-0.16608767,0.15897876,0.8508167,1.3508222,-0.71420735,1.0,1.0,-0.9359328113819593,-0.14617132485452508,0.657770961845363,-1.56,-2.45,5.65,0.24555938,0.38565418,-0.8893658,-0.5,-0.8660254
3.2880,154,0.32980588,0.45252433,0.4693981,-1.9803692,0.8697671,0.5236,0.5236,0.0,0.0,-0.1994175,0.15339808,0.34514567,1.4143302,-0.75318456,-0.07194247,-0.07194247,-1.103118,0.7434055,0.3836932,0.0,0.0,0.0,0.0,0.4796165,0.6235014,-0.23980825,-2.0143893,0.5035973,0.79830605,1.066374,-1.3444412,0.21807824,0.28120565,-0.23178454,0.38609606,-0.30770537,0.07426976,-0.7274801,0.89655393,-0.3734909,-1.1439648,0.08580801,0.22182907,0.33327898,0.52775073,-1.5674969,0.8395264,0.5236,0.5236,0.0,0.0,-0.17388062,0.18088266,0.845741,1.3360969,-0.7154636,1.0,1.0,-0.5705044992456465,-0.1810779098944117,0.4068798818711781,-4.75,-4.84,8.95,0.4230116,0.43102655,-0.79704285,-0.28680325,-0.9579895
3.3081,155,0.29759228,0.4371845,0.4878059,-1.9911071,0.8605632,0.5236,0.5236,0.0,0.0,-0.19328158,0.17180584,0.34667966,1.3913206,-0.72864085,-0.28776988,-0.16786577,-0.28776988,0.45563567,0.023980824,0.0,0.0,0.0,0.0,0.21582742,0.7673864,0.0,-1.7985618,0.5995206,0.93290395,1.0689201,-1.2475885,0.42580062,0.15845072,-0.3611605,0.50711745,-0.13742703,0.16572598,-0.87088156,0.90791845,-0.4482751,-1.0597856,-0.14042996,0.22514786,0.3151394,0.5499716,-1.5256381,0.81732094,0.5236,0.5236,0.0,0.0,-0.19289653,0.19516145,0.83521706,1.3356795,-0.7388412,1.0,1.0,-0.2977968036215325,-0.31852258848896514,0.5105088062083414,-5.73,-3.11,6.76,0.6101181,0.33114612,-0.7197903,-0.05814483,-0.9983082
3.3281,156,0.26537868,0.41110685,0.5108156,-2.001845,0.8498254,0.5236,0.5236,0.0,0.0,-0.19481556,0.19328158,0.34974763,1.3698448,-0.7117671,-0.7194247,-0.35971236,0.3117507,0.21582742,-0.21582742,0.0,0.0,0.0,0.0,0.0959233,0.8393288,0.14388494,-1.5107919,0.7434055,0.77917093,0.97402054,-1.083709,0.47912034,0.0745165,-0.37164074,0.40280113,-0.12110525,0.19864315,-0.78393745,1.1113664,-0.3828557,-0.77853006,-0.13602903,0.21176581,0.2947657,0.57969207,-1.4951909,0.7956042,0.5236,0.5236,0.0,0.0,-0.19561167,0.22407351,0.8354447,1.3635547,-0.7524276,1.0,1.0,-0.11780972450961724,-0.27707101875409984,0.5475970528132209,-3.67,-3.73,6.38,0.44477105,0.45204252,-0.7731987,0.17364818,-0.9848077
3.3481,157,0.25157285,0.38196123,0.53382534,-2.0125828,0.8390875,0.5236,0.5236,0.0,0.0,-0.20555343,0.21168935,0.35588354,1.3667768,-0.71483505,-1.0551562,-0.7194247,0.7434055,-0.26378906,-0.33573154,0.0,0.0,0.0,0.0,0.0,0.93525213,0.21582742,-1.1510795,0.7673864,1.0653456,0.9943161,-1.0851656,0.75492585,0.08939066,-0.43635297,0.52176285,0.06811793,0.37098485,-0.98917156,1.3655791,-0.53042287,-0.2484321,-0.3457142,0.23235406,0.28457105,0.5973787,-1.4493419,0.7840616,0.5236,0.5236,0.0,0.0,-0.21776415,0.26684204,0.8208245,1.4332896,-0.78154796,1.0,1.0,0.39160825091622764,0.2748893571891069,0.8530296719122286,-5.57,-3.28,8.67,0.5150519,0.30329806,-0.80170554,0.39607978,-0.9182161
3.3680,158,0.24083498,0.35434955,0.56297094,-2.0202527,0.81914574,0.5236,0.5236,0.0,0.0,-0.21168935,0.23469906,0.36968938,1.3775147,-0.720971,-1.1270987,-1.103118,1.0311754,-0.43165484,-0.5035973,0.0,0.0,0.0,0.0,-0.11990412,0.9832138,0.21582742,-0.7194247,0.5275781,0.9468289,0.86612284,-0.9934814,0.6982772,-0.026124477,-0.3868437,0.29020932,0.06493622,0.32755622,-0.8249185,1.6189898,-0.54528004,0.25945693,-0.2484314,0.23285533,0.26563492,0.61715907,-1.4274975,0.7655845,0.5236,0.5236,0.0,0.0,-0.21463035,0.3178442,0.8105667,1.5259194,-0.7892919,1.0,1.0,0.6108652381980153,0.02181661564992912,0.5345070834232634,-4.07,-2.56,8.6,0.41307878,0.2598235,-0.87284464,0.5971586,-0.8021232
3.3880,159,0.24236897,0.3344078,0.58598065,-2.0263886,0.80227196,0.5236,0.5236,0.0,0.0,-0.22396119,0.26691267,0.3926991,1.4112623,-0.7363108,-0.7913672,-1.2470028,1.1270987,-0.45563567,-0.6235014,0.0,0.0,0.0,0.0,-0.3117507,1.0791371,0.407674,-0.0959233,0.07194247,1.105994,0.79296917,-0.8614025,0.6921845,0.02876059,-0.34584203,0.33575255,0.14589766,0.40644902,-0.8434942,1.8022838,-0.8585899,0.7182569,-0.30722326,0.2490726,0.24695787,0.64223516,-1.4150001,0.75998676,0.5236,0.5236,0.0,0.0,-0.21460764,0.36677492,0.77308106,1.6223195,-0.79981744,1.0,1.0,0.8083056098298739,0.001090830782496456,0.37742745074377376,-4.65,-1.65,7.35,0.52527285,0.18638714,-0.83027,0.76604444,-0.64278764
3.4080,160,0.24850489,0.30526218,0.6089904,-2.0141168,0.77772826,0.5236,0.5236,0.0,0.0,-0.22396119,0.30833015,0.42798063,1.4772235,-0.7577865,-0.3836932,-1.2709837,1.1750604,-0.33573154,-0.7913672,0.0,0.0,0.0,0.0,-0.35971236,1.2949644,0.7434055,0.7913672,-0.35971236,1.1392307,0.65739834,-0.70513964,0.6091116,0.06731846,-0.33498135,0.29559013,0.27867818,0.42924762,-0.92443436,1.9422847,-1.1449435,0.97721595,-0.3840524,0.26212662,0.22219458,0.6729071,-1.4158089,0.7604839,0.5236,0.5236,0.0,0.0,-0.22268803,0.41013342,0.7219543,1.714148,-0.8138157,1.0,1.0,0.8639379797371932,0.21380283336930536,0.1014472627721704,-3.94,-0.78,6.59,0.5105268,0.10106874,-0.8539013,0.89363265,-0.4487992
3.4278,161,0.25924274,0.28225246,0.62586415,-2.0079808,0.76238847,0.5236,0.5236,0.0,0.0,-0.22549517,0.34821364,0.48320395,1.5447186,-0.77772826,-0.04796165,-1.223022,1.1510795,-0.07194247,-0.91127133,0.0,0.0,0.0,0.0,-0.28776988,1.5827343,1.223022,1.7266194,-0.6714631,1.0563532,0.48597902,-0.40027288,0.5587301,0.06335165,-0.4856524,0.27526194,0.36613712,0.39125586,-1.0404202,1.83363,-1.4645523,1.2007942,-0.45383865,0.2616713,0.19019467,0.721797,-1.4213324,0.7603855,0.5236,0.5236,0.0,0.0,-0.23913483,0.42528307,0.6593174,1.7885683,-0.8291933,1.0,1.0,1.1660981064887113,0.17453292519943295,0.2901609881440573,-5.22,-2.56,7.48,0.55099475,0.27021965,-0.7895481,0.9730449,-0.23061587
3.4499,162,0.2715146,0.25310683,0.6565438,-1.9972429,0.75318456,0.5236,0.5236,0.0,0.0,-0.23469906,0.398835,0.5491651,1.6290876,-0.79460204,0.23980825,-1.2470028,1.103118,0.21582742,-0.8633097,0.0,0.0,0.0,0.0,-0.1918466,1.8944851,1.918466,2.7577949,-0.8872905,1.2338729,0.2262437,-0.20117334,0.8568875,0.15413663,-0.5940865,0.3737319,0.7258727,0.31242028,-1.2427769,1.8573679,-1.9222198,1.3702626,-0.83711004,0.2791501,0.14502117,0.77104086,-1.3948307,0.769405,0.5236,0.5236,0.0,0.0,-0.2692386,0.43674666,0.57596844,1.8501673,-0.876747,1.0,1.0,1.6471544815696484,0.4319689898685966,0.7603090554000299,-5.73,-0.78,5.8,0.6996066,0.0952344,-0.7081533,1.0,0.0
3.4677,163,0.27304858,0.23009712,0.6856894,-1.9972429,0.7501166,0.5236,0.5236,0.0,0.0,-0.2469709,0.42951462,0.6043884,1.6965828,-0.8068739,0.35971236,-1.2709837,1.1510795,0.35971236,-0.7194247,0.0,0.0,0.0,0.0,-0.23980825,2.0143893,2.422063,3.3093536,-0.8872905,1.0334101,-0.15906146,0.001156182,1.073789,0.02801869,-0.63045955,0.36572912,0.77289057,0.1663275,-1.3104943,1.6284082,-2.1741433,1.3099262,-0.9067361,0.26959106,0.079386555,0.82082015,-1.3572395,0.7622049,0.5236,0.5236,0.0,0.0,-0.2940726,0.42072886,0.50076675,1.881093,-0.9122418,1.0,1.0,1.7769633446867266,0.1778054175469223,0.8999353955595762,-5.69,-2.71,7.42,0.58446926,0.2783676,-0.7621726,0.9730449,0.23061587
3.4878,164,0.28378645,0.1994175,0.719437,-2.0079808,0.7455147,0.5236,0.5236,0.0,0.0,-0.27304858,0.44638842,0.6227962,1.7717478,-0.82988364,0.407674,-1.2949644,1.2709837,0.23980825,-0.4796165,0.0,0.0,0.0,0.0,-0.4796165,1.918466,2.6378906,3.5971236,-0.8393288,0.8437787,-0.30462846,0.14049113,1.1812276,-0.1305162,-0.55176824,0.17054264,0.91276366,-0.12607571,-1.1351831,1.2655581,-2.006146,1.0019836,-1.1168919,0.24489252,0.02544909,0.8646212,-1.323941,0.74203134,0.5236,0.5236,0.0,0.0,-0.2914419,0.37483317,0.47244543,1.8688542,-0.95455426,1.0,1.0,1.7595100521667835,-0.3272492347489368,1.2326387842209952,-6.69,0.57,9.62,0.5702651,-0.048587613,-0.8200225,0.89363265,0.4487992
3.5118,165,0.28071848,0.15339808,0.7669904,-2.0248547,0.7332428,0.5236,0.5236,0.0,0.0,-0.3021942,0.44025248,0.5813787,1.8515148,-0.86669916,0.3117507,-1.4388494,1.5347728,-0.0959233,-0.33573154,0.0,0.0,0.0,0.0,-0.8633097,1.366907,1.7506001,3.6930468,-0.959233,0.799818,-0.42916438,0.3134254,1.1316929,-0.17602345,-0.51459426,0.16067266,0.90756094,-0.27166227,-1.1296313,1.1007361,-2.0527058,0.69049597,-1.1663122,0.22567733,-0.019366987,0.90819526,-1.3089154,0.7253764,0.5236,0.5236,0.0,0.0,-0.28930828,0.33081353,0.45079666,1.8303621,-0.9848838,1.0,1.0,1.4835298641951802,-0.2628902185816459,0.9817477042468103,-4.87,-0.53,9.37,0.46059406,0.05012625,-0.88619435,0.76604444,0.64278764
3.5317,166,0.2699806,0.11811652,0.8068739,-2.0355926,0.717903,0.5236,0.5236,0.0,0.0,-0.31446606,0.42184472,0.5200195,1.8883303,-0.89737874,0.11990412,-1.5587536,1.7266194,-0.3836932,-0.3836932,0.0,0.0,0.0,0.0,-1.0311754,0.5995206,0.23980825,3.4532387,-1.1990412,1.0136044,-0.22988239,0.5358128,1.092581,0.06689461,-0.56491995,0.1940908,1.1413386,-0.25780863,-1.2837759,1.1415408,-2.0682828,0.36788234,-1.3216223,0.23552684,-0.026328433,0.95657843,-1.3038111,0.73967534,0.5236,0.5236,0.0,0.0,-0.30344257,0.3084822,0.43624973,1.7750056,-1.0186125,1.0,1.0,1.27736284630335,0.19853120241435498,0.38288160465625604,-7.18,1.0,9.32,0.60809296,-0.08469262,-0.7893352,0.5971586,0.8021232
3.5518,167,0.25770876,0.075165056,0.8252817,-2.0417285,0.7040972,0.5236,0.5236,0.0,0.0,-0.31753403,0.4065049,0.4632622,1.8960003,-0.89277685,-0.14388494,-1.7266194,1.7506001,-0.5275781,-0.5275781,0.0,0.0,0.0,0.0,-0.93525213,-0.0959233,-1.3189453,2.8057563,-1.2470028,1.0763001,0.03578838,0.75284076,0.80792016,0.30057672,-0.5458981,0.14592113,1.127874,-0.33869717,-1.4717382,1.2162328,-2.0408018,-0.060453415,-1.3208736,0.24770613,-0.0039382223,1.0073111,-1.3292147,0.7716229,0.5236,0.5236,0.0,0.0,-0.33071938,0.3025526,0.43026966,1.698958,-1.0387748,1.0,1.0,1.6067937426172796,0.26398104936414235,0.26070855701665296,-8.91,0.9,10.26,0.6542533,-0.06608619,-0.75338256,0.39607978,0.9182161
3.5676,168,0.25464082,0.044485442,0.82988364,-2.0447965,0.6933593,0.5236,0.5236,0.0,0.0,-0.3267379,0.39423305,0.42644665,1.8898643,-0.8866409,-0.3117507,-1.7985618,1.5587536,-0.4796165,-0.5995206,0.0,0.0,0.0,0.0,-0.69544387,-0.4796165,-2.182255,1.918466,-0.93525213,0.8502541,0.785112,0.5986603,0.019399885,0.23428369,-0.38917768,-0.16876468,0.85714686,-0.5320622,-1.3106489,1.2230664,-1.5084419,-0.5672575,-1.3942825,0.2324091,0.084428266,1.0223327,-1.4233088,0.7841621,0.5236,0.5236,0.0,0.0,-0.33097652,0.2996782,0.4799176,1.6026491,-1.0582132,1.0,1.0,1.7933258064241737,0.16253378659197193,-0.0272707695624114,-7.36,6.36,11.28,0.49412936,-0.42699224,-0.75730693,0.17364818,0.9848077
3.5918,169,0.25310683,0.047553405,0.8513593,-2.0463305,0.6810875,0.5236,0.5236,0.0,0.0,-0.34667966,0.3604855,0.40190297,1.8775924,-0.877437,-0.3117507,-1.5827343,1.0551562,-0.3117507,-0.6235014,0.0,0.0,0.0,0.0,-0.551559,-0.7673864,-2.302159,0.7434055,-0.26378906,0.98059464,0.9256746,0.5445308,-0.14510204,0.29382437,-0.573487,0.09902249,0.590079,-0.4020306,-1.4569418,0.99036586,-1.6914301,-0.5406148,-1.159326,0.23626493,0.15150443,1.0259328,-1.4962156,0.7976397,0.5236,0.5236,0.0,0.0,-0.34576008,0.27468354,0.4914075,1.5475279,-1.0463805,1.0,1.0,1.0057459814617324,0.0643590161672909,0.11562806294462433,-5.28,0.04,8.14,0.5441865,-0.0041226246,-0.83895415,-0.05814483,0.9983082
3.6264,170,0.24236897,0.107378654,0.9387962,-2.0509324,0.6626797,0.5236,0.5236,0.0,0.0,-0.35741752,0.32520393,0.38042724,1.8530488,-0.8651652,-0.23980825,-0.23980825,1.2470028,-0.16786577,-0.5995206,0.0,0.0,0.0,0.0,-0.5275781,-1.0551562,-1.4388494,-0.28776988,0.28776988,1.193351,1.5740998,0.07020725,-0.6235486,0.1623441,-0.53342474,0.14097992,0.44805628,-0.38532943,-1.4446776,0.9154816,-1.4056827,-0.76645786,-1.4754032,0.25985405,0.24790442,0.9806604,-1.5878042,0.7925782,0.5236,0.5236,0.0,0.0,-0.3534038,0.2521983,0.5268762,1.491871,-1.0708886,1.0,1.0,0.4036073895236887,0.48651052899341934,-0.7483099167925689,-5.05,0.82,7.43,0.55980027,-0.09089825,-0.8236269,-0.28680325,0.9579895
3.6418,171,0.24236897,0.14572817,0.9817477,-2.0509324,0.6703496,0.5236,0.5236,0.0,0.0,-0.3604855,0.31293207,0.37122336,1.8208352,-0.85902923,-0.1918466,0.69544387,1.7506001,-0.11990412,-0.4796165,0.0,0.0,0.0,0.0,-0.4796165,-1.103118,-0.9832138,-0.6235014,0.33573154,1.0672399,1.9084724,-0.4943849,-1.0421789,0.16195527,-0.52429396,0.085018635,0.18362543,-0.51684844,-1.159663,0.6486007,-1.0441755,-0.7417286,-1.5005947,0.2613964,0.3443044,0.89703774,-1.6842042,0.7895025,0.5236,0.5236,0.0,0.0,-0.32948858,0.21201906,0.58430815,1.4609498,-1.0881126,1.0,1.0,-0.3207042500539581,-0.09053895494720585,-0.9501136115544131,-6.03,4.11,7.16,0.58982146,-0.4020176,-0.7003518,-0.5,0.8660254
3.6618,172,0.25157285,0.20862138,0.9894176,-2.0509324,0.67648554,0.5236,0.5236,0.0,0.0,-0.36508742,0.29299033,0.3589515,1.7886215,-0.8513593,-0.11990412,1.5587536,2.0623507,-0.07194247,-0.21582742,0.0,0.0,0.0,0.0,-0.35971236,-1.0071946,-0.7194247,-0.9832138,0.35971236,1.2216623,2.049024,-0.9384947,-1.236991,0.22781137,-0.3657051,0.40549648,-0.099260196,-0.4148188,-0.98996,0.28299206,-0.8543398,-0.78938675,-1.3423004,0.27776408,0.42503214,0.80245316,-1.7621914,0.7942426,0.5236,0.5236,0.0,0.0,-0.29816917,0.15135065,0.6377509,1.4376311,-1.0826176,1.0,1.0,-0.6130468997630082,-0.13526301702956053,-1.1137382289288815,-5.12,1.28,7.2,0.5735357,-0.14338392,-0.8065345,-0.6862416,0.72737366
